trials,subj_idx,response,reward,traveltime,rt,rwdbin,TotalTime,stress,stai_state,stai_trait,SSC,subID,tt,stress2
1,2,1,0.87469596082075,20,0.812,3,0,1,0,0.145454545454545,0.467900533,15089,l,n
2,2,1,0.818791493199445,20,0.847,3,0.054084589434063,1,0,0.145454545454545,0.467900533,15089,l,n
3,2,1,0.749539154030506,20,0.956,3,0.0969466904254512,1,0,0.145454545454545,0.467900533,15089,l,n
4,2,1,0.713359075617027,20,1.046,3,0.138587615203435,1,0,0.145454545454545,0.467900533,15089,l,n
5,2,1,0.669591107976544,20,1.828,3,0.183487281135312,1,0,0.145454545454545,0.467900533,15089,l,n
6,2,1,0.618549421456958,20,1.297,2,0.23068272006943,1,0,0.145454545454545,0.467900533,15089,l,n
7,2,1,0.578166593742727,20,1.163,2,0.273974190034573,1,0,0.145454545454545,0.467900533,15089,l,n
8,2,1,0.460719859436811,20,1.414,2,0.318739194990253,1,0,0.145454545454545,0.467900533,15089,l,n
9,2,0,0,20,0.863,0,0.365306511706258,1,0,0.145454545454545,0.467900533,15089,l,n
10,2,1,0.900096512636542,20,0.622,3,0,1,0,0.145454545454545,0.467900533,15089,l,n
11,2,1,0.857460368154947,20,0.89,3,0.0396182741390303,1,0,0.145454545454545,0.467900533,15089,l,n
12,2,1,0.816589479299013,20,0.879,3,0.0811518804105275,1,0,0.145454545454545,0.467900533,15089,l,n
13,2,1,0.747276287782089,20,0.851,3,0.123076186912178,1,0,0.145454545454545,0.467900533,15089,l,n
14,2,1,0.673447133439536,20,1.059,3,0.163900662996042,1,0,0.145454545454545,0.467900533,15089,l,n
15,2,1,0.563582511567207,20,1.439,2,0.206311032306566,1,0,0.145454545454545,0.467900533,15089,l,n
16,2,1,0.512817561291178,20,1.114,2,0.250978258511709,1,0,0.145454545454545,0.467900533,15089,l,n
17,2,1,0.455194592626544,20,1.38,2,0.293744442229296,1,0,0.145454545454545,0.467900533,15089,l,n
18,2,1,0.380577209151378,20,0.913,2,0.338465288958971,1,0,0.145454545454545,0.467900533,15089,l,n
19,2,0,0,20,0.764,0,0.380047708397629,1,0,0.145454545454545,0.467900533,15089,l,n
20,2,1,0.921390684869035,20,0.756,3,0,1,0,0.145454545454545,0.467900533,15089,l,n
21,2,1,0.851039006052096,20,0.514,3,0.0403521032495438,1,0,0.145454545454545,0.467900533,15089,l,n
22,2,1,0.83577419371835,20,1.046,3,0.0793846918428114,1,0,0.145454545454545,0.467900533,15089,l,n
23,2,1,0.815358155378546,20,1.13,3,0.121581623481078,1,0,0.145454545454545,0.467900533,15089,l,n
24,2,1,0.823493755708339,20,1.58,3,0.16523881990458,1,0,0.145454545454545,0.467900533,15089,l,n
25,2,1,0.738022598697234,20,1.68,3,0.210849052734324,1,0,0.145454545454545,0.467900533,15089,l,n
26,2,1,0.689056865285142,20,3.236,3,0.257455880231057,1,0,0.145454545454545,0.467900533,15089,l,n
27,2,1,0.622517954693238,20,1.253,2,0.313883406741037,1,0,0.145454545454545,0.467900533,15089,l,n
28,2,1,0.579727244342849,20,1.074,2,0.357068167864557,1,0,0.145454545454545,0.467900533,15089,l,n
29,2,1,0.464046415677877,20,1.167,2,0.399639338781644,1,0,0.145454545454545,0.467900533,15089,l,n
30,2,1,0.394907650760876,20,0.927,2,0.442733152399457,1,0,0.145454545454545,0.467900533,15089,l,n
31,2,0,0,20,0.446,0,0.485551332534356,1,0,0.145454545454545,0.467900533,15089,l,n
32,2,1,0.902416778557643,20,0.379,3,0,1,0,0.145454545454545,0.467900533,15089,l,n
33,2,1,0.875012124657693,20,0.983,3,0.037921799199683,1,0,0.145454545454545,0.467900533,15089,l,n
34,2,1,0.786289408059642,20,0.547,3,0.0825675771950123,1,0,0.145454545454545,0.467900533,15089,l,n
35,2,1,0.696850357597374,20,0.479,3,0.124291511342336,1,0,0.145454545454545,0.467900533,15089,l,n
36,2,1,0.662336298006561,20,0.538,3,0.162855095249796,1,0,0.145454545454545,0.467900533,15089,l,n
38,2,1,0.627873785804168,5,0.564,2,0,1,0,0.145454545454545,0.467900533,15089,s,n
39,2,1,0.559290383399512,5,0.464,2,0.0457122117714156,1,0,0.145454545454545,0.467900533,15089,s,n
40,2,1,0.533308335427287,5,0.937,2,0.0868374100468052,1,0,0.145454545454545,0.467900533,15089,s,n
41,2,1,0.476439693805257,5,0.413,2,0.130967658931033,1,0,0.145454545454545,0.467900533,15089,s,n
42,2,1,0.424945464348202,5,0.59,2,0.169434603461635,1,0,0.145454545454545,0.467900533,15089,s,n
43,2,1,0.377666536091007,5,0.547,2,0.211664272104209,1,0,0.145454545454545,0.467900533,15089,s,n
44,2,1,0.349304108995927,5,0.665,2,0.250865900275585,1,0,0.145454545454545,0.467900533,15089,s,n
45,2,1,0.252727018076898,5,0.598,1,0.291225331996633,1,0,0.145454545454545,0.467900533,15089,s,n
46,2,1,0.182948245324195,5,0.938,1,0.330612753036751,1,0,0.145454545454545,0.467900533,15089,s,n
47,2,0,0,5,0.918,0,0.372024998520872,1,0,0.145454545454545,0.467900533,15089,s,n
48,2,1,0.832744618235054,5,0.596,3,0,1,0,0.145454545454545,0.467900533,15089,s,n
49,2,1,0.776394684709347,5,0.498,3,0.0396777414495562,1,0,0.145454545454545,0.467900533,15089,s,n
50,2,1,0.679895708133926,5,0.881,3,0.07856567206203,1,0,0.145454545454545,0.467900533,15089,s,n
51,2,1,0.600297694751314,5,0.724,2,0.11986310066156,1,0,0.145454545454545,0.467900533,15089,s,n
52,2,1,0.524342228175664,5,0.59,2,0.160775231061413,1,0,0.145454545454545,0.467900533,15089,s,n
53,2,1,0.451510914011552,5,0.572,2,0.201343992712764,1,0,0.145454545454545,0.467900533,15089,s,n
54,2,1,0.329459387987834,5,0.497,2,0.241131056567253,1,0,0.145454545454545,0.467900533,15089,s,n
55,2,1,0.251793724080741,5,0.604,1,0.280130061121833,1,0,0.145454545454545,0.467900533,15089,s,n
56,2,1,0.221588657841523,5,0.654,1,0.32166873960511,1,0,0.145454545454545,0.467900533,15089,s,n
57,2,0,0,5,0.756,0,0.361806665588955,1,0,0.145454545454545,0.467900533,15089,s,n
58,2,1,0.85352918257619,5,0.581,3,0,1,0,0.145454545454545,0.467900533,15089,s,n
59,2,1,0.749354760583675,5,0.632,3,0.0395777514145718,1,0,0.145454545454545,0.467900533,15089,s,n
60,2,1,0.725456605261566,5,0.646,3,0.0791975372226309,1,0,0.145454545454545,0.467900533,15089,s,n
61,2,1,0.620641573435386,5,0.681,2,0.118848046142043,1,0,0.145454545454545,0.467900533,15089,s,n
62,2,1,0.551769842413685,5,0.447,2,0.159510456314339,1,0,0.145454545454545,0.467900533,15089,s,n
63,2,1,0.47258128383876,5,0.66,2,0.198394546537893,1,0,0.145454545454545,0.467900533,15089,s,n
64,2,1,0.417208314127766,5,0.481,2,0.240927630891352,1,0,0.145454545454545,0.467900533,15089,s,n
65,2,0,0,5,0.492,0,0.27952929386656,1,0,0.145454545454545,0.467900533,15089,s,n
66,2,1,0.931009705435687,5,0.473,3,0,1,0,0.145454545454545,0.467900533,15089,s,n
67,2,1,0.9075694520651,5,0.606,3,0.0389800724616438,1,0,0.145454545454545,0.467900533,15089,s,n
68,2,1,0.831281820055951,5,0.661,3,0.0816808246472673,1,0,0.145454545454545,0.467900533,15089,s,n
69,2,1,0.702480633056587,5,1.047,3,0.12193878464782,1,0,0.145454545454545,0.467900533,15089,s,n
70,2,1,0.634096211274191,5,0.532,2,0.164570442315041,1,0,0.145454545454545,0.467900533,15089,s,n
71,2,1,0.551289455767827,5,1.164,2,0.203776488058057,1,0,0.145454545454545,0.467900533,15089,s,n
72,2,1,0.487113044967839,5,0.51,2,0.246993189124033,1,0,0.145454545454545,0.467900533,15089,s,n
73,2,1,0.433108087260042,5,0.498,2,0.286516952715978,1,0,0.145454545454545,0.467900533,15089,s,n
74,2,1,0.423250865142471,5,0.514,2,0.325717354061746,1,0,0.145454545454545,0.467900533,15089,s,n
75,2,0,0,5,1.069,0,0.365404945096936,1,0,0.145454545454545,0.467900533,15089,s,n
76,2,1,0.889075718358292,5,0.617,3,0,1,0,0.145454545454545,0.467900533,15089,s,n
77,2,1,0.82147450855308,5,0.464,3,0.0401079999343412,1,0,0.145454545454545,0.467900533,15089,s,n
78,2,1,0.700999649246228,5,0.676,3,0.0812238358562632,1,0,0.145454545454545,0.467900533,15089,s,n
79,2,1,0.665543963442297,5,0.43,3,0.122069990023578,1,0,0.145454545454545,0.467900533,15089,s,n
80,2,1,0.559443135931558,5,0.381,2,0.160879950996347,1,0,0.145454545454545,0.467900533,15089,s,n
81,2,1,0.868422068468185,5,0.468,3,0,2,0.0533333333333333,0.145454545454545,0.468299415,15089,s,y
82,2,1,0.849871902072035,5,0.428,3,0.0434477690467662,2,0.0533333333333333,0.145454545454545,0.468299415,15089,s,y
83,2,1,0.740606562046587,5,0.628,3,0.0818093664871843,2,0.0533333333333333,0.145454545454545,0.468299415,15089,s,y
84,2,1,0.716678188781229,5,0.55,3,0.121398021907771,2,0.0533333333333333,0.145454545454545,0.468299415,15089,s,y
85,2,1,0.655498049625103,5,0.513,3,0.160522539966955,2,0.0533333333333333,0.145454545454545,0.468299415,15089,s,y
86,2,1,0.566886136124583,5,0.505,2,0.199402360037833,2,0.0533333333333333,0.145454545454545,0.468299415,15089,s,y
87,2,1,0.521835234432442,5,0.433,2,0.238024629185727,2,0.0533333333333333,0.145454545454545,0.468299415,15089,s,y
88,2,1,0.491967199143632,5,0.436,2,0.275958606690937,2,0.0533333333333333,0.145454545454545,0.468299415,15089,s,y
89,2,1,0.378451456597315,5,0.524,2,0.313785373130597,2,0.0533333333333333,0.145454545454545,0.468299415,15089,s,y
90,2,1,0.313938436959842,5,0.448,1,0.352385919219762,2,0.0533333333333333,0.145454545454545,0.468299415,15089,s,y
91,2,0,0,5,0.564,0,0.390802676338634,2,0.0533333333333333,0.145454545454545,0.468299415,15089,s,y
92,2,1,0.933915395248986,5,0.48,3,0,2,0.0533333333333333,0.145454545454545,0.468299415,15089,s,y
93,2,1,0.971470352686983,5,0.547,3,0.0386351295784497,2,0.0533333333333333,0.145454545454545,0.468299415,15089,s,y
94,2,1,0.861571674885506,5,0.589,3,0.0797515376858373,2,0.0533333333333333,0.145454545454545,0.468299415,15089,s,y
95,2,1,0.79223690731865,5,0.463,3,0.122188849685833,2,0.0533333333333333,0.145454545454545,0.468299415,15089,s,y
96,2,1,0.721229596955442,5,0.64,3,0.160568557171069,2,0.0533333333333333,0.145454545454545,0.468299415,15089,s,y
97,2,1,0.687132353822164,5,0.447,3,0.200476774426936,2,0.0533333333333333,0.145454545454545,0.468299415,15089,s,y
98,2,1,0.672815605026139,5,0.566,3,0.238738044517796,2,0.0533333333333333,0.145454545454545,0.468299415,15089,s,y
99,2,1,0.557730931774226,5,0.602,2,0.278185842368482,2,0.0533333333333333,0.145454545454545,0.468299415,15089,s,y
100,2,1,0.48566894705358,5,0.47,2,0.317949631517195,2,0.0533333333333333,0.145454545454545,0.468299415,15089,s,y
101,2,1,0.453342083042193,5,0.64,2,0.356302483764886,2,0.0533333333333333,0.145454545454545,0.468299415,15089,s,y
102,2,1,0.438322158989033,5,1.173,2,0.396052003257697,2,0.0533333333333333,0.145454545454545,0.468299415,15089,s,y
103,2,0,0,5,0.468,0,0.438703864818738,2,0.0533333333333333,0.145454545454545,0.468299415,15089,s,y
104,2,1,0.842803752074854,5,0.683,3,0,2,0.0533333333333333,0.145454545454545,0.468299415,15089,s,y
105,2,1,0.731708983842608,5,0.423,3,0.0439438613423796,2,0.0533333333333333,0.145454545454545,0.468299415,15089,s,y
106,2,1,0.665212965912304,5,0.531,3,0.082624248542492,2,0.0533333333333333,0.145454545454545,0.468299415,15089,s,y
107,2,1,0.667420589864247,5,0.481,3,0.121791335701233,2,0.0533333333333333,0.145454545454545,0.468299415,15089,s,y
108,2,1,0.610975906731266,5,0.465,2,0.160561680950962,2,0.0533333333333333,0.145454545454545,0.468299415,15089,s,y
109,2,1,0.519183715226115,5,0.456,2,0.199023988030795,2,0.0533333333333333,0.145454545454545,0.468299415,15089,s,y
110,2,1,0.49103967438022,5,0.381,2,0.237762803112812,2,0.0533333333333333,0.145454545454545,0.468299415,15089,s,y
111,2,0,0,5,0.465,0,0.275942515536322,2,0.0533333333333333,0.145454545454545,0.468299415,15089,s,y
112,2,1,0.862456655246459,5,0.432,3,0,2,0.0533333333333333,0.145454545454545,0.468299415,15089,s,y
113,2,1,0.739519525848235,5,0.414,3,0.0384863213790523,2,0.0533333333333333,0.145454545454545,0.468299415,15089,s,y
114,2,1,0.66534731973622,5,0.552,3,0.0771520541347857,2,0.0533333333333333,0.145454545454545,0.468299415,15089,s,y
115,2,1,0.650788355646307,5,0.549,3,0.118973427219445,2,0.0533333333333333,0.145454545454545,0.468299415,15089,s,y
116,2,1,0.571256894351673,5,0.415,2,0.158159144137316,2,0.0533333333333333,0.145454545454545,0.468299415,15089,s,y
117,2,1,0.461951480505322,5,0.381,2,0.196192167196696,2,0.0533333333333333,0.145454545454545,0.468299415,15089,s,y
118,2,0,0,5,0.368,0,0.237121515631709,2,0.0533333333333333,0.145454545454545,0.468299415,15089,s,y
119,2,1,0.882856477244028,5,0.402,3,0,2,0.0533333333333333,0.145454545454545,0.468299415,15089,s,y
120,2,1,0.835423467354568,5,0.472,3,0.0386939747309796,2,0.0533333333333333,0.145454545454545,0.468299415,15089,s,y
121,2,1,0.820281159018341,5,0.983,3,0.0772239845942561,2,0.0533333333333333,0.145454545454545,0.468299415,15089,s,y
122,2,1,0.766339944506745,5,0.384,3,0.119053393261716,2,0.0533333333333333,0.145454545454545,0.468299415,15089,s,y
123,2,1,0.73611441970207,5,0.498,3,0.157094961623699,2,0.0533333333333333,0.145454545454545,0.468299415,15089,s,y
124,2,1,0.557677088159018,5,0.464,2,0.195850022775171,2,0.0533333333333333,0.145454545454545,0.468299415,15089,s,y
125,2,1,0.54110845954623,5,0.424,2,0.234417487049574,2,0.0533333333333333,0.145454545454545,0.468299415,15089,s,y
126,2,0,0,5,0.482,0,0.272809665179636,2,0.0533333333333333,0.145454545454545,0.468299415,15089,s,y
128,2,1,0.864400407355898,20,0.473,3,0,2,0.0533333333333333,0.145454545454545,0.468299415,15089,l,y
129,2,1,0.80535864096696,20,0.399,3,0.0426345335863145,2,0.0533333333333333,0.145454545454545,0.468299415,15089,l,y
130,2,1,0.747864105159224,20,0.447,3,0.0829802778314342,2,0.0533333333333333,0.145454545454545,0.468299415,15089,l,y
131,2,1,0.65261294885488,20,0.398,3,0.123669373334672,2,0.0533333333333333,0.145454545454545,0.468299415,15089,l,y
132,2,1,0.519177254894849,20,0.464,2,0.161937729530264,2,0.0533333333333333,0.145454545454545,0.468299415,15089,l,y
133,2,1,0.519077211709889,20,0.424,2,0.200775542692549,2,0.0533333333333333,0.145454545454545,0.468299415,15089,l,y
134,2,1,0.468661887490054,20,0.483,2,0.239757199283388,2,0.0533333333333333,0.145454545454545,0.468299415,15089,l,y
135,2,1,0.40117251117508,20,0.416,2,0.278242813551145,2,0.0533333333333333,0.145454545454545,0.468299415,15089,l,y
136,2,1,0.339735929976139,20,0.464,2,0.318925642499137,2,0.0533333333333333,0.145454545454545,0.468299415,15089,l,y
137,2,1,0.244901588025596,20,0.582,1,0.36041256193462,2,0.0533333333333333,0.145454545454545,0.468299415,15089,l,y
138,2,0,0,20,0.399,0,0.399606921601528,2,0.0533333333333333,0.145454545454545,0.468299415,15089,l,y
139,2,1,0.908996443374685,20,0.409,3,0,2,0.0533333333333333,0.145454545454545,0.468299415,15089,l,y
140,2,1,0.846418550953462,20,0.364,3,0.038624235566943,2,0.0533333333333333,0.145454545454545,0.468299415,15089,l,y
141,2,1,0.729995426154364,20,0.432,3,0.0768769928373416,2,0.0533333333333333,0.145454545454545,0.468299415,15089,l,y
142,2,1,0.605017283476699,20,0.481,2,0.115646191217509,2,0.0533333333333333,0.145454545454545,0.468299415,15089,l,y
143,2,1,0.529139046842772,20,0.5,2,0.158958712110854,2,0.0533333333333333,0.145454545454545,0.468299415,15089,l,y
144,2,1,0.413172036891241,20,0.95,2,0.197938002502406,2,0.0533333333333333,0.145454545454545,0.468299415,15089,l,y
145,2,1,0.371550196820337,20,0.698,2,0.239767923388296,2,0.0533333333333333,0.145454545454545,0.468299415,15089,l,y
146,2,1,0.337912166660983,20,0.732,2,0.28034112759755,2,0.0533333333333333,0.145454545454545,0.468299415,15089,l,y
147,2,1,0.305314644924201,20,0.883,1,0.322946054958551,2,0.0533333333333333,0.145454545454545,0.468299415,15089,l,y
148,2,1,0.227383881276288,20,0.385,1,0.364550050036975,2,0.0533333333333333,0.145454545454545,0.468299415,15089,l,y
149,2,1,0.18058975168995,20,0.463,1,0.405837666530268,2,0.0533333333333333,0.145454545454545,0.468299415,15089,l,y
150,2,0,0,20,0.573,0,0.44451814617956,2,0.0533333333333333,0.145454545454545,0.468299415,15089,l,y
151,2,1,0.867559497394303,20,0.38,3,0,2,0.0533333333333333,0.145454545454545,0.468299415,15089,l,y
152,2,1,0.781563097846778,20,0.517,3,0.0419430187154571,2,0.0533333333333333,0.145454545454545,0.468299415,15089,l,y
153,2,1,0.645166656887911,20,0.434,3,0.0809263169039032,2,0.0533333333333333,0.145454545454545,0.468299415,15089,l,y
154,2,1,0.581659663985422,20,0.496,2,0.119573120065327,2,0.0533333333333333,0.145454545454545,0.468299415,15089,l,y
155,2,1,0.482387551372746,20,0.521,2,0.162908960639727,2,0.0533333333333333,0.145454545454545,0.468299415,15089,l,y
156,2,1,0.407604661917199,20,0.473,2,0.205555422668917,2,0.0533333333333333,0.145454545454545,0.468299415,15089,l,y
157,2,1,0.344316690554325,20,0.396,2,0.244637559025533,2,0.0533333333333333,0.145454545454545,0.468299415,15089,l,y
158,2,1,0.25846280028201,20,0.451,1,0.282887083073251,2,0.0533333333333333,0.145454545454545,0.468299415,15089,l,y
159,2,0,0,20,0.652,0,0.321557175932214,2,0.0533333333333333,0.145454545454545,0.468299415,15089,l,y
160,2,1,0.898673366132842,20,0.654,3,0,2,0.0533333333333333,0.145454545454545,0.468299415,15089,l,y
161,2,1,0.844157104768606,20,0.411,3,0.0398475156238528,2,0.0533333333333333,0.145454545454545,0.468299415,15089,l,y
162,2,1,0.796132720083112,20,0.734,3,0.0780711963777557,2,0.0533333333333333,0.145454545454545,0.468299415,15089,l,y
163,2,1,0.749827272292175,20,0.798,3,0.118739175988503,2,0.0533333333333333,0.145454545454545,0.468299415,15089,l,y
164,2,1,0.723298521359859,20,0.563,3,0.161439863209838,2,0.0533333333333333,0.145454545454545,0.468299415,15089,l,y
165,3,1,0.925592970605317,5,1.463,3,0,1,0.08,0.472727272727273,0.463670392,26383,s,n
166,3,1,0.870667541735815,5,0.712,3,0.0588720150673181,1,0.08,0.472727272727273,0.463670392,26383,s,n
167,3,1,0.873469974147119,5,0.779,3,0.103688816908859,1,0.08,0.472727272727273,0.463670392,26383,s,n
168,3,1,0.791440571001587,5,2.145,3,0.148387241790685,1,0.08,0.472727272727273,0.463670392,26383,s,n
169,3,1,0.675712023368117,5,1.21,3,0.197807609833263,1,0.08,0.472727272727273,0.463670392,26383,s,n
170,3,0,0,5,0.001,0,0.241011624606457,1,0.08,0.472727272727273,0.463670392,26383,s,n
171,3,1,0.809703589012251,5,1.356,3,0,1,0.08,0.472727272727273,0.463670392,26383,s,n
172,3,1,0.728619896035483,5,1.612,3,0.0453766418818919,1,0.08,0.472727272727273,0.463670392,26383,s,n
173,3,1,0.610735019182452,5,0.781,2,0.0914649547418195,1,0.08,0.472727272727273,0.463670392,26383,s,n
174,3,0,0,5,0.982,0,0.131972310040757,1,0.08,0.472727272727273,0.463670392,26383,s,n
175,3,1,0.843397691471352,5,0.002,3,0,1,0.08,0.472727272727273,0.463670392,26383,s,n
176,3,1,0.726018635081877,5,0.898,3,0.0403483433371002,1,0.08,0.472727272727273,0.463670392,26383,s,n
177,3,1,0.707759843555495,5,1.678,3,0.117380696297136,1,0.08,0.472727272727273,0.463670392,26383,s,n
178,3,1,0.629436922854908,5,1.65,2,0.163764755414922,1,0.08,0.472727272727273,0.463670392,26383,s,n
179,3,1,0.612872633895265,5,0.852,2,0.209880940343276,1,0.08,0.472727272727273,0.463670392,26383,s,n
180,3,1,0.555255614839997,5,0.88,2,0.25064765204758,1,0.08,0.472727272727273,0.463670392,26383,s,n
181,3,0,0,5,0.956,0,0.292063579308837,1,0.08,0.472727272727273,0.463670392,26383,s,n
182,3,1,0.877677795062705,5,0.001,3,0,1,0.08,0.472727272727273,0.463670392,26383,s,n
183,3,1,0.763557634842464,5,1.03,3,0.0358871857904358,1,0.08,0.472727272727273,0.463670392,26383,s,n
184,3,1,0.686373249961574,5,0.614,3,0.0780730317804024,1,0.08,0.472727272727273,0.463670392,26383,s,n
185,3,1,0.657026491622173,5,0.773,3,0.142764160052058,1,0.08,0.472727272727273,0.463670392,26383,s,n
186,3,1,0.58087670077447,5,1.164,2,0.183609633149529,1,0.08,0.472727272727273,0.463670392,26383,s,n
187,3,1,0.544658386194498,5,1.164,2,0.226811349195429,1,0.08,0.472727272727273,0.463670392,26383,s,n
188,3,1,0.434570278198464,5,1.181,2,0.269918819920957,1,0.08,0.472727272727273,0.463670392,26383,s,n
189,3,1,0.358259226295067,5,0.949,2,0.313004012980681,1,0.08,0.472727272727273,0.463670392,26383,s,n
190,3,0,0,5,1.636,0,0.35454980584087,1,0.08,0.472727272727273,0.463670392,26383,s,n
191,3,1,0.879209311706263,5,0.538,3,0,1,0.08,0.472727272727273,0.463670392,26383,s,n
192,3,1,0.795633856507418,5,0.748,3,0.0661433992109574,1,0.08,0.472727272727273,0.463670392,26383,s,n
193,3,1,0.703500295587255,5,0.672,3,0.10671140093254,1,0.08,0.472727272727273,0.463670392,26383,s,n
194,3,1,0.594770084668372,5,0.565,2,0.146843966236764,1,0.08,0.472727272727273,0.463670392,26383,s,n
195,3,1,0.518184523238822,5,0.731,2,0.186358133921468,1,0.08,0.472727272727273,0.463670392,26383,s,n
196,3,0,0,5,0.815,0,0.226604940974894,1,0.08,0.472727272727273,0.463670392,26383,s,n
197,3,1,0.92183749702876,5,0.714,3,0,1,0.08,0.472727272727273,0.463670392,26383,s,n
198,3,1,0.872245434676112,5,0.582,3,0.0544670464112483,1,0.08,0.472727272727273,0.463670392,26383,s,n
199,3,1,0.817830928602661,5,0.766,3,0.0938922258649602,1,0.08,0.472727272727273,0.463670392,26383,s,n
200,3,1,0.737439250121853,5,0.711,3,0.137328674449422,1,0.08,0.472727272727273,0.463670392,26383,s,n
201,3,1,0.664079405991387,5,0.698,3,0.179969640958516,1,0.08,0.472727272727273,0.463670392,26383,s,n
202,3,1,0.546072405628173,5,0.539,2,0.219890620908556,1,0.08,0.472727272727273,0.463670392,26383,s,n
203,3,1,0.518173324025617,5,0.964,2,0.259017945271962,1,0.08,0.472727272727273,0.463670392,26383,s,n
205,3,1,0.451108448026931,20,0.001,2,0,1,0.08,0.472727272727273,0.463670392,26383,l,n
206,3,1,0.358520857195176,20,0.619,2,0.0407271111294712,1,0.08,0.472727272727273,0.463670392,26383,l,n
207,3,1,0.290381455097981,20,0.553,1,0.0805575437117459,1,0.08,0.472727272727273,0.463670392,26383,l,n
208,3,1,0.268556280608068,20,0.515,1,0.119856505546776,1,0.08,0.472727272727273,0.463670392,26383,l,n
209,3,1,0.206473240584218,20,0.598,1,0.15873723144128,1,0.08,0.472727272727273,0.463670392,26383,l,n
210,3,0,0,20,0.778,0,0.198397340824271,1,0.08,0.472727272727273,0.463670392,26383,l,n
211,3,1,0.865512951470415,20,0.598,3,0,1,0.08,0.472727272727273,0.463670392,26383,l,n
212,3,1,0.785166548462996,20,0.638,3,0.0451230148044399,1,0.08,0.472727272727273,0.463670392,26383,l,n
213,3,1,0.744378727930605,20,2.762,3,0.0877754099859551,1,0.08,0.472727272727273,0.463670392,26383,l,n
214,3,1,0.65635286630638,20,0.628,3,0.140973873757493,1,0.08,0.472727272727273,0.463670392,26383,l,n
215,3,1,0.633563343987042,20,0.603,2,0.185441716302964,1,0.08,0.472727272727273,0.463670392,26383,l,n
216,3,1,0.528074808792011,20,0.815,2,0.228437548837813,1,0.08,0.472727272727273,0.463670392,26383,l,n
217,3,1,0.490577138840343,20,0.798,2,0.269844066308857,1,0.08,0.472727272727273,0.463670392,26383,l,n
218,3,1,0.398767283638891,20,0.514,2,0.310393913082072,1,0.08,0.472727272727273,0.463670392,26383,l,n
219,3,1,0.359940175191723,20,0.833,2,0.352332688364599,1,0.08,0.472727272727273,0.463670392,26383,l,n
220,3,1,0.348381463718347,20,1.165,2,0.393958664330806,1,0.08,0.472727272727273,0.463670392,26383,l,n
221,3,1,0.29059531061934,20,0.722,1,0.437254755625141,1,0.08,0.472727272727273,0.463670392,26383,l,n
222,3,0,0,20,0.598,0,0.481289240602278,1,0.08,0.472727272727273,0.463670392,26383,l,n
223,3,1,0.865532482110593,20,0.506,3,0,1,0.08,0.472727272727273,0.463670392,26383,l,n
224,3,1,0.778220922062546,20,0.932,3,0.0451288690631758,1,0.08,0.472727272727273,0.463670392,26383,l,n
225,3,1,0.753156359727619,20,0.797,3,0.0869450697100638,1,0.08,0.472727272727273,0.463670392,26383,l,n
226,3,1,0.736381235341036,20,2.88,3,0.128213711017298,1,0.08,0.472727272727273,0.463670392,26383,l,n
227,3,1,0.698293756275772,20,0.598,3,0.182362551105859,1,0.08,0.472727272727273,0.463670392,26383,l,n
228,3,1,0.55635914431218,20,0.555,2,0.222023087752295,1,0.08,0.472727272727273,0.463670392,26383,l,n
229,3,1,0.494716129216206,20,0.488,2,0.261431676391631,1,0.08,0.472727272727273,0.463670392,26383,l,n
230,3,1,0.455200189481853,20,0.729,2,0.300523070648017,1,0.08,0.472727272727273,0.463670392,26383,l,n
231,3,1,0.460787400975972,20,0.869,2,0.34120128135157,1,0.08,0.472727272727273,0.463670392,26383,l,n
232,3,1,0.342496911476133,20,0.628,2,0.382698868401272,1,0.08,0.472727272727273,0.463670392,26383,l,n
233,3,1,0.218837086518343,20,0.616,1,0.422701870439164,1,0.08,0.472727272727273,0.463670392,26383,l,n
234,3,0,0,20,0.846,0,0.462471654100167,1,0.08,0.472727272727273,0.463670392,26383,l,n
235,3,1,0.894845792313442,20,1.431,3,0,1,0.08,0.472727272727273,0.463670392,26383,l,n
236,3,1,0.805081184678266,20,0.613,3,0.0602829563890784,1,0.08,0.472727272727273,0.463670392,26383,l,n
237,3,1,0.751339734213251,20,0.526,3,0.100445020361143,1,0.08,0.472727272727273,0.463670392,26383,l,n
238,3,1,0.741872232062006,20,0.548,3,0.139738657644152,1,0.08,0.472727272727273,0.463670392,26383,l,n
239,3,1,0.719936077692629,20,0.677,3,0.179039328532965,1,0.08,0.472727272727273,0.463670392,26383,l,n
240,3,1,0.914198754888289,5,0.545,3,0,2,0.573333333333333,0.472727272727273,0.471327246,26383,s,y
241,3,1,0.866250015029447,5,0.639,3,0.0519075934715609,2,0.573333333333333,0.472727272727273,0.471327246,26383,s,y
242,3,1,0.779841852931359,5,0.556,3,0.0921051353010444,2,0.573333333333333,0.472727272727273,0.471327246,26383,s,y
243,3,1,0.757097815651534,5,0.528,3,0.131873030007878,2,0.573333333333333,0.472727272727273,0.471327246,26383,s,y
244,3,1,0.649195576613169,5,0.513,3,0.171263478690538,2,0.573333333333333,0.472727272727273,0.471327246,26383,s,y
245,3,1,0.600558053345674,5,0.532,2,0.21116092666924,2,0.573333333333333,0.472727272727273,0.471327246,26383,s,y
246,3,1,0.569978060267656,5,0.513,2,0.250486426311421,2,0.573333333333333,0.472727272727273,0.471327246,26383,s,y
247,3,1,0.516494259691531,5,0.472,2,0.289548266930392,2,0.573333333333333,0.472727272727273,0.471327246,26383,s,y
248,3,0,0,5,0.597,0,0.328315313264446,2,0.573333333333333,0.472727272727273,0.471327246,26383,s,y
249,3,1,0.925960829748876,5,0.421,3,0,2,0.573333333333333,0.472727272727273,0.471327246,26383,s,y
250,3,1,0.850889094593178,5,0.512,3,0.0408665639203856,2,0.573333333333333,0.472727272727273,0.471327246,26383,s,y
251,3,1,0.80072122805263,5,0.557,3,0.080390895977505,2,0.573333333333333,0.472727272727273,0.471327246,26383,s,y
252,3,1,0.745204718436813,5,0.556,3,0.120002024978859,2,0.573333333333333,0.472727272727273,0.471327246,26383,s,y
253,3,1,0.676710679174353,5,0.427,3,0.160252894782903,2,0.573333333333333,0.472727272727273,0.471327246,26383,s,y
254,3,1,0.594841989532695,5,0.598,2,0.199102078141169,2,0.573333333333333,0.472727272727273,0.471327246,26383,s,y
255,3,1,0.562447975785164,5,0.533,2,0.238722764351095,2,0.573333333333333,0.472727272727273,0.471327246,26383,s,y
256,3,1,0.505745035380479,5,0.724,2,0.278072248214238,2,0.573333333333333,0.472727272727273,0.471327246,26383,s,y
257,3,0,0,5,0.516,0,0.318949736086495,2,0.573333333333333,0.472727272727273,0.471327246,26383,s,y
258,3,1,0.927944945571711,5,0.448,3,0,2,0.573333333333333,0.472727272727273,0.471327246,26383,s,y
259,3,1,0.866449409474668,5,0.484,3,0.0417176352183752,2,0.573333333333333,0.472727272727273,0.471327246,26383,s,y
260,3,1,0.80210345563626,5,0.427,3,0.0812601022349514,2,0.573333333333333,0.472727272727273,0.471327246,26383,s,y
261,3,1,0.726497510360294,5,0.552,3,0.119908629188137,2,0.573333333333333,0.472727272727273,0.471327246,26383,s,y
262,3,1,0.705313087715257,5,0.481,3,0.159559061428941,2,0.573333333333333,0.472727272727273,0.471327246,26383,s,y
263,3,1,0.648351626512229,5,0.57,3,0.19884246937551,2,0.573333333333333,0.472727272727273,0.471327246,26383,s,y
264,3,1,0.627675535657193,5,0.562,2,0.238437479801023,2,0.573333333333333,0.472727272727273,0.471327246,26383,s,y
265,3,1,0.578297487771242,5,0.507,2,0.278068362865389,2,0.573333333333333,0.472727272727273,0.471327246,26383,s,y
266,3,1,0.567056814847661,5,0.473,2,0.31712493640053,2,0.573333333333333,0.472727272727273,0.471327246,26383,s,y
267,3,1,0.505477554840064,5,0.553,2,0.355833127820033,2,0.573333333333333,0.472727272727273,0.471327246,26383,s,y
268,3,0,0,5,0.462,0,0.395357549827356,2,0.573333333333333,0.472727272727273,0.471327246,26383,s,y
269,3,1,0.874703670474939,5,0.473,3,0,2,0.573333333333333,0.472727272727273,0.471327246,26383,s,y
270,3,1,0.791355042432101,5,0.53,3,0.0456434091841755,2,0.573333333333333,0.472727272727273,0.471327246,26383,s,y
271,3,1,0.734089537214105,5,0.546,3,0.0850464384015302,2,0.573333333333333,0.472727272727273,0.471327246,26383,s,y
272,3,1,0.625834649712145,5,0.544,2,0.124372035489751,2,0.573333333333333,0.472727272727273,0.471327246,26383,s,y
273,3,1,0.608038278638686,5,0.529,2,0.163804111125334,2,0.573333333333333,0.472727272727273,0.471327246,26383,s,y
274,3,1,0.544847681428033,5,0.46,2,0.203090679821934,2,0.573333333333333,0.472727272727273,0.471327246,26383,s,y
275,3,1,0.489982752110965,5,0.514,2,0.241822693052311,2,0.573333333333333,0.472727272727273,0.471327246,26383,s,y
276,3,0,0,5,0.523,0,0.280824027171172,2,0.573333333333333,0.472727272727273,0.471327246,26383,s,y
277,3,1,0.903492340041766,5,3.254,3,0,2,0.573333333333333,0.472727272727273,0.471327246,26383,s,y
278,3,1,0.845867698774375,5,0.482,3,0.0571733630387432,2,0.573333333333333,0.472727272727273,0.471327246,26383,s,y
279,3,1,0.8287443705638,5,0.497,3,0.0959929352914258,2,0.573333333333333,0.472727272727273,0.471327246,26383,s,y
280,3,1,0.792858540618106,5,0.538,3,0.135494992181355,2,0.573333333333333,0.472727272727273,0.471327246,26383,s,y
281,3,1,0.726273803233882,5,0.532,3,0.175403406588416,2,0.573333333333333,0.472727272727273,0.471327246,26383,s,y
282,3,1,0.684623343699986,5,0.598,3,0.214706780980407,2,0.573333333333333,0.472727272727273,0.471327246,26383,s,y
283,3,1,0.671168305298189,5,0.448,3,0.254521364837442,2,0.573333333333333,0.472727272727273,0.471327246,26383,s,y
284,3,1,0.609615635131083,5,0.502,2,0.293428531093036,2,0.573333333333333,0.472727272727273,0.471327246,26383,s,y
286,3,1,0.594090991217739,20,0.682,2,0,2,0.573333333333333,0.472727272727273,0.471327246,26383,l,y
287,3,1,0.536530292699155,20,0.73,2,0.0443710911126155,2,0.573333333333333,0.472727272727273,0.471327246,26383,l,y
288,3,1,0.441158421082686,20,0.514,2,0.0851285504395877,2,0.573333333333333,0.472727272727273,0.471327246,26383,l,y
289,3,1,0.448324620541621,20,0.432,2,0.124221418879774,2,0.573333333333333,0.472727272727273,0.471327246,26383,l,y
290,3,1,0.431793826692403,20,0.468,2,0.163033302889104,2,0.573333333333333,0.472727272727273,0.471327246,26383,l,y
291,3,1,0.374881032991256,20,0.497,2,0.202352735890128,2,0.573333333333333,0.472727272727273,0.471327246,26383,l,y
292,3,1,0.301051265364128,20,0.505,1,0.241930073600271,2,0.573333333333333,0.472727272727273,0.471327246,26383,l,y
293,3,0,0,20,1.031,0,0.280995337324026,2,0.573333333333333,0.472727272727273,0.471327246,26383,l,y
294,3,1,0.867933693481964,20,0.447,3,0,2,0.573333333333333,0.472727272727273,0.471327246,26383,l,y
295,3,1,0.803935807238055,20,0.495,3,0.0458518088021605,2,0.573333333333333,0.472727272727273,0.471327246,26383,l,y
296,3,1,0.758986710219104,20,0.51,3,0.0856562707632666,2,0.573333333333333,0.472727272727273,0.471327246,26383,l,y
297,3,1,0.648190077527282,20,0.454,3,0.128651835946131,2,0.573333333333333,0.472727272727273,0.471327246,26383,l,y
298,3,1,0.591533096148178,20,0.491,2,0.167646398813943,2,0.573333333333333,0.472727272727273,0.471327246,26383,l,y
299,3,1,0.527811905956499,20,0.522,2,0.207246873714013,2,0.573333333333333,0.472727272727273,0.471327246,26383,l,y
300,3,1,0.511754458829851,20,0.494,2,0.24721721383543,2,0.573333333333333,0.472727272727273,0.471327246,26383,l,y
301,3,1,0.472002112710872,20,0.589,2,0.286709003909663,2,0.573333333333333,0.472727272727273,0.471327246,26383,l,y
302,3,1,0.474320240025914,20,0.474,2,0.32707486754652,2,0.573333333333333,0.472727272727273,0.471327246,26383,l,y
303,3,1,0.413506015933787,20,0.537,2,0.36940122324224,2,0.573333333333333,0.472727272727273,0.471327246,26383,l,y
304,3,1,0.308851733059517,20,0.464,1,0.40946663322751,2,0.573333333333333,0.472727272727273,0.471327246,26383,l,y
305,3,1,0.223971639498256,20,0.817,1,0.449046971776223,2,0.573333333333333,0.472727272727273,0.471327246,26383,l,y
306,3,0,0,20,0.539,0,0.490662303635621,2,0.573333333333333,0.472727272727273,0.471327246,26383,l,y
307,3,1,0.864627068429611,20,0.886,3,0,2,0.573333333333333,0.472727272727273,0.471327246,26383,l,y
308,3,1,0.774153138407793,20,0.496,3,0.0440398620001061,2,0.573333333333333,0.472727272727273,0.471327246,26383,l,y
309,3,1,0.69529249068942,20,0.499,3,0.0834250710837069,2,0.573333333333333,0.472727272727273,0.471327246,26383,l,y
310,3,1,0.620423177215404,20,0.602,2,0.122950247673244,2,0.573333333333333,0.472727272727273,0.471327246,26383,l,y
311,3,1,0.575695230296075,20,0.646,2,0.163000238695349,2,0.573333333333333,0.472727272727273,0.471327246,26383,l,y
312,3,1,0.488862619721245,20,0.515,2,0.203557136564663,2,0.573333333333333,0.472727272727273,0.471327246,26383,l,y
313,3,1,0.383669242054938,20,0.631,2,0.243045680935902,2,0.573333333333333,0.472727272727273,0.471327246,26383,l,y
314,3,1,0.351225574600636,20,0.495,2,0.283215747977009,2,0.573333333333333,0.472727272727273,0.471327246,26383,l,y
315,3,1,0.242451833648534,20,0.615,1,0.322712762658608,2,0.573333333333333,0.472727272727273,0.471327246,26383,l,y
316,3,0,0,20,0.497,0,0.362864100069517,2,0.573333333333333,0.472727272727273,0.471327246,26383,l,y
317,3,1,0.941901762264039,20,0.457,3,0,2,0.573333333333333,0.472727272727273,0.471327246,26383,l,y
318,3,1,0.867311312284336,20,0.45,3,0.0414924773786946,2,0.573333333333333,0.472727272727273,0.471327246,26383,l,y
319,3,1,0.782017003483573,20,0.547,3,0.0810916155188756,2,0.573333333333333,0.472727272727273,0.471327246,26383,l,y
320,3,1,0.732302037965559,20,0.465,3,0.12124693072744,2,0.573333333333333,0.472727272727273,0.471327246,26383,l,y
321,3,1,0.666400698883298,20,0.465,3,0.160830350070456,2,0.573333333333333,0.472727272727273,0.471327246,26383,l,y
322,4,1,0.877365196595996,20,1.094,3,0,1,0,0,0.508187011,31730,l,n
323,4,1,0.807401921866097,20,1.283,3,0.0710546150794474,1,0,0,0.508187011,31730,l,n
324,4,1,0.714981539066209,20,1.198,3,0.122350337318105,1,0,0,0.508187011,31730,l,n
325,4,1,0.636009018185743,20,1.163,2,0.176536581697511,1,0,0,0.508187011,31730,l,n
326,4,1,0.557693891233093,20,1.234,2,0.226681690981675,1,0,0,0.508187011,31730,l,n
327,4,1,0.494645052642367,20,1.97,2,0.273003437099519,1,0,0,0.508187011,31730,l,n
328,4,1,0.416919618015916,20,1.503,2,0.325197407016619,1,0,0,0.508187011,31730,l,n
329,4,1,0.361926759990365,20,1.267,2,0.373993285812355,1,0,0,0.508187011,31730,l,n
330,4,0,0,20,0.954,0,0.421144929950939,1,0,0,0.508187011,31730,l,n
331,4,1,0.888313082651921,20,0.901,3,0,1,0,0,0.508187011,31730,l,n
332,4,1,0.800266585569578,20,0.581,3,0.0479025858740578,1,0,0,0.508187011,31730,l,n
333,4,1,0.757462915314499,20,0.48,3,0.0907802513329964,1,0,0,0.508187011,31730,l,n
334,4,1,0.678781407767764,20,0.997,3,0.140330290082417,1,0,0,0.508187011,31730,l,n
335,4,1,0.59644656223726,20,0.747,2,0.188560909338336,1,0,0,0.508187011,31730,l,n
336,4,1,0.502843277146083,20,0.448,2,0.2355162346703,1,0,0,0.508187011,31730,l,n
337,4,1,0.493077602966312,20,0.962,2,0.28065700214583,1,0,0,0.508187011,31730,l,n
338,4,1,0.473611950327458,20,0.828,2,0.328310885715792,1,0,0,0.508187011,31730,l,n
339,4,1,0.439006650374021,20,0.756,2,0.374417470959074,1,0,0,0.508187011,31730,l,n
340,4,1,0.341580756853315,20,1.032,2,0.422944995830971,1,0,0,0.508187011,31730,l,n
341,4,0,0,20,0.944,0,0.469683713589346,1,0,0,0.508187011,31730,l,n
342,4,1,0.899498037014216,20,0.808,3,0,1,0,0,0.508187011,31730,l,n
343,4,1,0.866002129816933,20,1.265,3,0.0461949763049058,1,0,0,0.508187011,31730,l,n
344,4,1,0.754918218011208,20,0.639,3,0.0943140748051304,1,0,0,0.508187011,31730,l,n
345,4,1,0.674899619817294,20,0.704,3,0.141390643010065,1,0,0,0.508187011,31730,l,n
346,4,1,0.599995552247699,20,0.522,2,0.184385421128703,1,0,0,0.508187011,31730,l,n
347,4,1,0.521374577718871,20,0.781,2,0.225719278828389,1,0,0,0.508187011,31730,l,n
348,4,1,0.48260244973643,20,0.823,2,0.267447508181241,1,0,0,0.508187011,31730,l,n
349,4,1,0.470498089836794,20,0.58,2,0.308608743954348,1,0,0,0.508187011,31730,l,n
350,4,1,0.451427054880197,20,0.688,2,0.347690808376263,1,0,0,0.508187011,31730,l,n
351,4,1,0.322989327154184,20,0.587,2,0.387657982750417,1,0,0,0.508187011,31730,l,n
352,4,0,0,20,0.516,0,0.427351568598916,1,0,0,0.508187011,31730,l,n
353,4,1,0.923310508177155,20,0.446,3,0,1,0,0,0.508187011,31730,l,n
355,4,1,0.867107324797071,5,0.685,3,0,1,0,0,0.508187011,31730,s,n
356,4,1,0.837438112481696,5,0.718,3,0.060304674364759,1,0,0,0.508187011,31730,s,n
357,4,1,0.763272067104606,5,0.582,3,0.105156276938598,1,0,0,0.508187011,31730,s,n
358,4,1,0.685359882383547,5,0.861,3,0.148894103662806,1,0,0,0.508187011,31730,s,n
359,4,1,0.695444729331296,5,0.698,3,0.193058671618516,1,0,0,0.508187011,31730,s,n
360,4,1,0.598288047296409,5,0.779,2,0.234233889650246,1,0,0,0.508187011,31730,s,n
361,4,0,0,5,0.647,0,0.277105036218416,1,0,0,0.508187011,31730,s,n
362,4,1,0.841893441907688,5,0.563,3,0,1,0,0,0.508187011,31730,s,n
363,4,1,0.757866603683942,5,0.448,3,0.0426763494190675,1,0,0,0.508187011,31730,s,n
364,4,1,0.675995698395023,5,0.573,3,0.0847229500032977,1,0,0,0.508187011,31730,s,n
365,4,1,0.622166102163408,5,0.532,2,0.124140688576708,1,0,0,0.508187011,31730,s,n
366,4,0,0,5,0.497,0,0.166519187902724,1,0,0,0.508187011,31730,s,n
367,4,1,0.901550737350153,5,0.682,3,0,1,0,0,0.508187011,31730,s,n
368,4,1,0.859939312588601,5,1.329,3,0.0440870433777786,1,0,0,0.508187011,31730,s,n
369,4,1,0.790632585857733,5,1.016,3,0.0909804180092095,1,0,0,0.508187011,31730,s,n
370,4,1,0.72508202797137,5,0.618,3,0.138695857498273,1,0,0,0.508187011,31730,s,n
371,4,1,0.611301876307765,5,0.685,2,0.181769416999001,1,0,0,0.508187011,31730,s,n
372,4,0,0,5,0.681,0,0.224204212656124,1,0,0,0.508187011,31730,s,n
373,4,1,0.924563395434451,5,0.731,3,0,1,0,0,0.508187011,31730,s,n
374,4,1,0.913132995305498,5,0.528,3,0.04250310283835,1,0,0,0.508187011,31730,s,n
375,4,1,0.835372384441471,5,0.786,3,0.0895827843195993,1,0,0,0.508187011,31730,s,n
376,4,1,0.75877871765196,5,0.506,3,0.130764428793268,1,0,0,0.508187011,31730,s,n
377,4,1,0.682627396066537,5,0.523,3,0.173843352823887,1,0,0,0.508187011,31730,s,n
378,4,1,0.590678486485595,5,0.489,2,0.215152854008741,1,0,0,0.508187011,31730,s,n
379,4,0,0,5,0.473,0,0.256979291487928,1,0,0,0.508187011,31730,s,n
380,4,1,0.887043078848506,5,0.672,3,0,1,0,0,0.508187011,31730,s,n
381,4,1,0.828644807993519,5,0.596,3,0.0442450009234035,1,0,0,0.508187011,31730,s,n
382,4,1,0.797827155086147,5,0.631,3,0.0839687900496243,1,0,0,0.508187011,31730,s,n
383,4,1,0.73738154612909,5,0.413,3,0.124309964855637,1,0,0,0.508187011,31730,s,n
384,4,1,0.709073352242118,5,1.416,3,0.164779745957809,1,0,0,0.508187011,31730,s,n
385,4,1,0.630439534460893,5,0.632,2,0.2099074756518,1,0,0,0.508187011,31730,s,n
386,4,0,0,5,0.547,0,0.250569592765702,1,0,0,0.508187011,31730,s,n
387,4,1,0.862843937453343,5,0.647,3,0,1,0,0,0.508187011,31730,s,n
388,4,1,0.771497535754111,5,0.752,3,0.0402870047976395,1,0,0,0.508187011,31730,s,n
389,4,1,0.693025250300117,5,0.58,3,0.0814343257747773,1,0,0,0.508187011,31730,s,n
390,4,1,0.655187079247202,5,0.614,3,0.121100299410977,1,0,0,0.508187011,31730,s,n
391,4,1,0.577270051781426,5,0.565,2,0.16133407118148,1,0,0,0.508187011,31730,s,n
392,4,0,0,5,0.513,0,0.203771472895741,1,0,0,0.508187011,31730,s,n
393,4,1,0.929037360705087,5,0.396,3,0,1,0,0,0.508187011,31730,s,n
394,4,1,0.862003295888542,20,0.64,3,0,2,0.226666666666667,0,0.453965052,31730,l,y
395,4,1,0.785564884240627,20,0.565,3,0.0667218614410048,2,0.226666666666667,0,0.453965052,31730,l,y
396,4,1,0.715601985549732,20,0.63,3,0.109157766483904,2,0.226666666666667,0,0.453965052,31730,l,y
397,4,1,0.672359978033245,20,0.63,3,0.148923072623919,2,0.226666666666667,0,0.453965052,31730,l,y
398,4,1,0.617561096681179,20,0.649,2,0.188317491608389,2,0.226666666666667,0,0.453965052,31730,l,y
399,4,1,0.555615858700254,20,0.434,2,0.230639847018901,2,0.226666666666667,0,0.453965052,31730,l,y
400,4,0,0,20,0.579,0,0.27134004305012,2,0.226666666666667,0,0.453965052,31730,l,y
401,4,1,0.886510404719858,20,0.497,3,0,2,0.226666666666667,0,0.453965052,31730,l,y
402,4,1,0.819879351581173,20,0.406,3,0.0416078285136846,2,0.226666666666667,0,0.453965052,31730,l,y
403,4,1,0.765694591063884,20,0.564,3,0.0809133692062901,2,0.226666666666667,0,0.453965052,31730,l,y
404,4,1,0.679198370843958,20,0.464,3,0.121930762119074,2,0.226666666666667,0,0.453965052,31730,l,y
405,4,1,0.584373480709471,20,0.436,2,0.163194613578235,2,0.226666666666667,0,0.453965052,31730,l,y
406,4,1,0.49002447298639,20,0.606,2,0.201561254099957,2,0.226666666666667,0,0.453965052,31730,l,y
407,4,0,0,20,0.446,0,0.244126220187252,2,0.226666666666667,0,0.453965052,31730,l,y
408,4,1,0.913329959901569,20,0.514,3,0,2,0.226666666666667,0,0.453965052,31730,l,y
409,4,1,0.783204946794221,20,0.565,3,0.0386107778532532,2,0.226666666666667,0,0.453965052,31730,l,y
410,4,1,0.684531627553497,20,0.417,3,0.0799760481611142,2,0.226666666666667,0,0.453965052,31730,l,y
411,4,1,0.671225915801316,20,0.598,3,0.118541198776237,2,0.226666666666667,0,0.453965052,31730,l,y
412,4,1,0.556745100762691,20,0.573,2,0.159982769339882,2,0.226666666666667,0,0.453965052,31730,l,y
413,4,1,0.520195053249756,20,0.499,2,0.202868477845723,2,0.226666666666667,0,0.453965052,31730,l,y
414,4,0,0,20,0.464,0,0.245508060121198,2,0.226666666666667,0,0.453965052,31730,l,y
415,4,1,0.917771221035012,20,0.513,3,0,2,0.226666666666667,0,0.453965052,31730,l,y
416,4,1,0.810850179060148,20,0.433,3,0.0420419081822191,2,0.226666666666667,0,0.453965052,31730,l,y
417,4,1,0.764494590527143,20,0.44,3,0.0828408295534109,2,0.226666666666667,0,0.453965052,31730,l,y
418,4,1,0.677675439257804,20,0.498,3,0.121933533084904,2,0.226666666666667,0,0.453965052,31730,l,y
419,4,1,0.647025705084325,20,0.546,3,0.16134837576164,2,0.226666666666667,0,0.453965052,31730,l,y
420,4,1,0.549386570085421,20,0.634,2,0.202616115068265,2,0.226666666666667,0,0.453965052,31730,l,y
421,4,0,0,20,0.705,0,0.245108911113048,2,0.226666666666667,0,0.453965052,31730,l,y
422,4,1,0.921566149427532,20,0.462,3,0,2,0.226666666666667,0,0.453965052,31730,l,y
423,4,1,0.871563081727581,20,0.435,3,0.0403588775047816,2,0.226666666666667,0,0.453965052,31730,l,y
424,4,1,0.782442186581045,20,0.789,3,0.0786014916946142,2,0.226666666666667,0,0.453965052,31730,l,y
425,4,1,0.786544600876788,20,0.767,3,0.119058334959912,2,0.226666666666667,0,0.453965052,31730,l,y
426,4,1,0.691370279556279,20,0.465,3,0.159521469741866,2,0.226666666666667,0,0.453965052,31730,l,y
427,4,1,0.646697799823176,20,0.447,3,0.198292046621207,2,0.226666666666667,0,0.453965052,31730,l,y
429,4,1,0.511614745910239,5,0.78,2,0,2,0.226666666666667,0,0.453965052,31730,s,y
430,4,1,0.466445292777724,5,0.555,2,0.050672719668704,2,0.226666666666667,0,0.453965052,31730,s,y
431,4,0,0,5,0.506,0,0.092937014724762,2,0.226666666666667,0,0.453965052,31730,s,y
432,4,1,0.921774017668385,5,0.554,3,0,2,0.226666666666667,0,0.453965052,31730,s,y
433,4,1,0.885953344457078,5,0.512,3,0.0395065194192238,2,0.226666666666667,0,0.453965052,31730,s,y
434,4,1,0.798285159228014,5,0.498,3,0.0825043533459963,2,0.226666666666667,0,0.453965052,31730,s,y
435,4,1,0.777600895149519,5,0.715,3,0.124127186052491,2,0.226666666666667,0,0.453965052,31730,s,y
436,4,1,0.675406091478307,5,0.672,3,0.164766595738527,2,0.226666666666667,0,0.453965052,31730,s,y
437,4,0,0,5,0.429,0,0.205262394935584,2,0.226666666666667,0,0.453965052,31730,s,y
438,4,1,0.883149021089867,5,0.497,3,0,2,0.226666666666667,0,0.453965052,31730,s,y
439,4,1,0.765559149741031,5,0.59,3,0.0391152610423615,2,0.226666666666667,0,0.453965052,31730,s,y
440,4,1,0.69215316139337,5,0.48,3,0.0789449690258196,2,0.226666666666667,0,0.453965052,31730,s,y
441,4,1,0.642634569789081,5,0.638,3,0.118255459477948,2,0.226666666666667,0,0.453965052,31730,s,y
442,4,0,0,5,0.465,0,0.158402754127162,2,0.226666666666667,0,0.453965052,31730,s,y
443,4,1,0.893604681146616,5,0.464,3,0,2,0.226666666666667,0,0.453965052,31730,s,y
444,4,1,0.802550242151206,5,0.731,3,0.0388010225228688,2,0.226666666666667,0,0.453965052,31730,s,y
445,4,1,0.699695001744822,5,0.606,3,0.0819685574933793,2,0.226666666666667,0,0.453965052,31730,s,y
446,4,1,0.556249482472862,5,0.779,2,0.121933643024033,2,0.226666666666667,0,0.453965052,31730,s,y
447,4,1,0.508151688005767,5,0.522,2,0.166295691643098,2,0.226666666666667,0,0.453965052,31730,s,y
448,4,0,0,5,0.77,0,0.205985894364693,2,0.226666666666667,0,0.453965052,31730,s,y
449,4,1,0.923463143757253,5,0.632,3,0,2,0.226666666666667,0,0.453965052,31730,s,y
450,4,1,0.832531930776029,5,0.556,3,0.0404582974601742,2,0.226666666666667,0,0.453965052,31730,s,y
451,4,1,0.742171290238753,5,0.581,3,0.0801970333110254,2,0.226666666666667,0,0.453965052,31730,s,y
452,4,1,0.69163572353108,5,0.506,3,0.120109772823447,2,0.226666666666667,0,0.453965052,31730,s,y
453,4,0,0,5,0.572,0,0.159306763615522,2,0.226666666666667,0,0.453965052,31730,s,y
454,4,1,0.936775427864555,5,0.564,3,0,2,0.226666666666667,0,0.453965052,31730,s,y
455,4,1,0.847427894640526,5,0.552,3,0.0395444933946543,2,0.226666666666667,0,0.453965052,31730,s,y
456,4,1,0.78749924100094,5,0.496,3,0.0828623076619001,2,0.226666666666667,0,0.453965052,31730,s,y
457,4,1,0.74657739471107,5,1.105,3,0.125854487219245,2,0.226666666666667,0,0.453965052,31730,s,y
458,4,1,0.704129338087975,5,0.53,3,0.171252094993219,2,0.226666666666667,0,0.453965052,31730,s,y
459,4,1,0.584523818263681,5,0.682,2,0.213588317725983,2,0.226666666666667,0,0.453965052,31730,s,y
460,4,0,0,5,0.64,0,0.25754597773784,2,0.226666666666667,0,0.453965052,31730,s,y
461,4,1,0.935334783291577,5,1.064,3,0,2,0.226666666666667,0,0.453965052,31730,s,y
462,4,1,0.884535182682545,5,0.569,3,0.0432722769793072,2,0.226666666666667,0,0.453965052,31730,s,y
463,4,1,0.824759590884624,5,0.506,3,0.0869828113141381,2,0.226666666666667,0,0.453965052,31730,s,y
464,4,1,0.737536410884098,5,0.632,3,0.12637886439388,2,0.226666666666667,0,0.453965052,31730,s,y
465,4,1,0.673982146345417,5,0.545,3,0.16699359274492,2,0.226666666666667,0,0.453965052,31730,s,y
466,4,1,0.610318608227373,5,0.648,2,0.207002843822993,2,0.226666666666667,0,0.453965052,31730,s,y
467,4,0,0,5,0.645,0,0.247162704015197,2,0.226666666666667,0,0.453965052,31730,s,y
468,4,1,0.851987836793063,5,0.639,3,0,2,0.226666666666667,0,0.453965052,31730,s,y
627,6,1,0.896703685477108,20,0.75,3,0,1,0.106666666666667,0.181818181818182,0.469544176,38058,l,n
628,6,1,0.842592592098049,20,1.332,3,0.0550280682954754,1,0.106666666666667,0.181818181818182,0.469544176,38058,l,n
629,6,1,0.777761311845009,20,0.815,3,0.0995873915685129,1,0.106666666666667,0.181818181818182,0.469544176,38058,l,n
630,6,0,0,20,0.648,0,0.143109728075788,1,0.106666666666667,0.181818181818182,0.469544176,38058,l,n
631,6,1,0.87454024991083,20,0.797,3,0,1,0.106666666666667,0.181818181818182,0.469544176,38058,l,n
632,6,0,0,20,0.856,0,0.0415309219400876,1,0.106666666666667,0.181818181818182,0.469544176,38058,l,n
633,6,1,0.918338619862888,20,0.645,3,0,1,0.106666666666667,0.181818181818182,0.469544176,38058,l,n
634,6,1,0.792933554294694,20,0.813,3,0.0499496500725741,1,0.106666666666667,0.181818181818182,0.469544176,38058,l,n
635,6,1,0.707891879642141,20,0.674,3,0.0913313677104814,1,0.106666666666667,0.181818181818182,0.469544176,38058,l,n
636,6,0,0,20,0.831,0,0.131686125491531,1,0.106666666666667,0.181818181818182,0.469544176,38058,l,n
637,6,1,0.926673125440285,20,0.713,3,0,1,0.106666666666667,0.181818181818182,0.469544176,38058,l,n
638,6,1,0.8266852035617,20,0.612,3,0.0443514616787359,1,0.106666666666667,0.181818181818182,0.469544176,38058,l,n
639,6,1,0.736010236599954,20,0.982,3,0.0858608781105181,1,0.106666666666667,0.181818181818182,0.469544176,38058,l,n
640,6,1,0.61228111533549,20,0.814,2,0.127794735369819,1,0.106666666666667,0.181818181818182,0.469544176,38058,l,n
641,6,0,0,20,0.818,0,0.169042320301448,1,0.106666666666667,0.181818181818182,0.469544176,38058,l,n
642,6,1,0.935221447251466,20,0.685,3,0,1,0.106666666666667,0.181818181818182,0.469544176,38058,l,n
643,6,1,0.845047926480154,20,0.682,3,0.0451375783322011,1,0.106666666666667,0.181818181818182,0.469544176,38058,l,n
644,6,1,0.771154569521978,20,0.805,3,0.0869767983621615,1,0.106666666666667,0.181818181818182,0.469544176,38058,l,n
645,6,1,0.716415836252938,20,0.582,3,0.128343364448725,1,0.106666666666667,0.181818181818182,0.469544176,38058,l,n
646,6,1,0.664021876638841,20,0.874,3,0.167673456093914,1,0.106666666666667,0.181818181818182,0.469544176,38058,l,n
647,6,1,0.554194919730347,20,1.018,2,0.209156137433445,1,0.106666666666667,0.181818181818182,0.469544176,38058,l,n
648,6,0,0,20,0.577,0,0.251327542233848,1,0.106666666666667,0.181818181818182,0.469544176,38058,l,n
649,6,1,0.880423125294885,20,0.921,3,0,1,0.106666666666667,0.181818181818182,0.469544176,38058,l,n
650,6,1,0.797502830816594,20,0.821,3,0.0486062691552989,1,0.106666666666667,0.181818181818182,0.469544176,38058,l,n
651,6,1,0.721080065486915,20,0.714,3,0.0945718532831295,1,0.106666666666667,0.181818181818182,0.469544176,38058,l,n
652,6,1,0.690047576042106,20,1.062,3,0.135167556710462,1,0.106666666666667,0.181818181818182,0.469544176,38058,l,n
653,6,1,0.572759533472698,20,0.846,2,0.18042836632765,1,0.106666666666667,0.181818181818182,0.469544176,38058,l,n
654,6,1,0.503699152103799,20,2.247,2,0.225940540781279,1,0.106666666666667,0.181818181818182,0.469544176,38058,l,n
655,6,0,0,20,1.495,0,0.275806719898103,1,0.106666666666667,0.181818181818182,0.469544176,38058,l,n
657,6,1,0.902067656313973,5,0.596,3,0,1,0.106666666666667,0.181818181818182,0.469544176,38058,s,n
658,6,1,0.874386040784483,5,0.639,3,0.0514557102782417,1,0.106666666666667,0.181818181818182,0.469544176,38058,s,n
659,6,1,0.828039534714294,5,0.597,3,0.0942295991274803,1,0.106666666666667,0.181818181818182,0.469544176,38058,s,n
660,6,1,0.745506683675495,5,0.571,3,0.136246679980471,1,0.106666666666667,0.181818181818182,0.469544176,38058,s,n
661,6,1,0.671687357443557,5,0.615,3,0.175965117580061,1,0.106666666666667,0.181818181818182,0.469544176,38058,s,n
662,6,0,0,5,0.623,0,0.216107728656233,1,0.106666666666667,0.181818181818182,0.469544176,38058,s,n
663,6,1,0.929848522981243,5,0.496,3,0,1,0.106666666666667,0.181818181818182,0.469544176,38058,s,n
664,6,1,0.874285797560693,5,1.213,3,0.0395302475362612,1,0.106666666666667,0.181818181818182,0.469544176,38058,s,n
665,6,1,0.781252047596567,5,0.655,3,0.0888616898277078,1,0.106666666666667,0.181818181818182,0.469544176,38058,s,n
666,6,0,0,5,0.913,0,0.129725231405798,1,0.106666666666667,0.181818181818182,0.469544176,38058,s,n
667,6,1,0.935776151750524,5,0.756,3,0,1,0.106666666666667,0.181818181818182,0.469544176,38058,s,n
668,6,1,0.885382451111673,5,0.746,3,0.0413682476489035,1,0.106666666666667,0.181818181818182,0.469544176,38058,s,n
669,6,1,0.827312806727514,5,0.814,3,0.0870226552918623,1,0.106666666666667,0.181818181818182,0.469544176,38058,s,n
670,6,1,0.704677391305598,5,0.449,3,0.130723177441055,1,0.106666666666667,0.181818181818182,0.469544176,38058,s,n
671,6,1,0.661499436193039,5,0.95,3,0.170120414145484,1,0.106666666666667,0.181818181818182,0.469544176,38058,s,n
672,6,0,0,5,0.589,0,0.215647337874765,1,0.106666666666667,0.181818181818182,0.469544176,38058,s,n
673,6,1,0.878444263874684,5,0.456,3,0,1,0.106666666666667,0.181818181818182,0.469544176,38058,s,n
674,6,1,0.809567131187742,5,0.648,3,0.0510013986070203,1,0.106666666666667,0.181818181818182,0.469544176,38058,s,n
675,6,1,0.73905322868382,5,0.799,3,0.0964204574828311,1,0.106666666666667,0.181818181818182,0.469544176,38058,s,n
676,6,1,0.719461331111867,5,0.49,3,0.142285377741862,1,0.106666666666667,0.181818181818182,0.469544176,38058,s,n
677,6,1,0.618781016381064,5,0.574,2,0.203592015044098,1,0.106666666666667,0.181818181818182,0.469544176,38058,s,n
678,6,1,0.532188751323294,5,0.583,2,0.24404951553477,1,0.106666666666667,0.181818181818182,0.469544176,38058,s,n
679,6,1,0.466422917783939,5,0.654,2,0.28947892613835,1,0.106666666666667,0.181818181818182,0.469544176,38058,s,n
680,6,0,0,5,0.646,0,0.335279789616082,1,0.106666666666667,0.181818181818182,0.469544176,38058,s,n
681,6,1,0.896605092856503,5,0.648,3,0,1,0.106666666666667,0.181818181818182,0.469544176,38058,s,n
682,6,1,0.86328107850894,5,0.573,3,0.0405978072542188,1,0.106666666666667,0.181818181818182,0.469544176,38058,s,n
683,6,1,0.842585472854382,5,0.481,3,0.0838002121585889,1,0.106666666666667,0.181818181818182,0.469544176,38058,s,n
684,6,1,0.805309288272146,5,0.53,3,0.123269821007587,1,0.106666666666667,0.181818181818182,0.469544176,38058,s,n
685,6,1,0.768635833829615,5,0.698,3,0.165028393507441,1,0.106666666666667,0.181818181818182,0.469544176,38058,s,n
686,6,1,0.717303568485413,5,0.399,3,0.205764458667653,1,0.106666666666667,0.181818181818182,0.469544176,38058,s,n
687,6,1,0.675087828903378,5,0.83,3,0.244796961251512,1,0.106666666666667,0.181818181818182,0.469544176,38058,s,n
688,6,1,0.619592096776622,5,0.681,2,0.286616947006694,1,0.106666666666667,0.181818181818182,0.469544176,38058,s,n
689,6,1,0.550261422823501,5,0.415,2,0.327347820062102,1,0.106666666666667,0.181818181818182,0.469544176,38058,s,n
690,6,1,0.559088274325075,5,0.63,2,0.370235123170388,1,0.106666666666667,0.181818181818182,0.469544176,38058,s,n
691,6,0,0,5,0.802,0,0.410316003668167,1,0.106666666666667,0.181818181818182,0.469544176,38058,s,n
692,6,1,0.916999249352286,5,0.614,3,0,1,0.106666666666667,0.181818181818182,0.469544176,38058,s,n
693,6,1,0.923985569720864,5,0.436,3,0.0435733080850214,1,0.106666666666667,0.181818181818182,0.469544176,38058,s,n
694,6,1,0.838744237736544,5,0.496,3,0.0825791805181129,1,0.106666666666667,0.181818181818182,0.469544176,38058,s,n
695,6,1,0.799405966721246,5,0.458,3,0.121561426125749,1,0.106666666666667,0.181818181818182,0.469544176,38058,s,n
696,6,1,0.720723262990439,5,0.513,3,0.163926670339356,1,0.106666666666667,0.181818181818182,0.469544176,38058,s,n
697,6,1,0.973645942515798,5,0.579,3,0,2,0.12,0.181818181818182,0.474443749,38058,s,y
698,6,1,0.884935068313501,5,0.535,3,0.0534762635974136,2,0.12,0.181818181818182,0.474443749,38058,s,y
699,6,1,0.854133393551982,5,0.431,3,0.0928676960383579,2,0.12,0.181818181818182,0.474443749,38058,s,y
700,6,1,0.799477930804983,5,0.463,3,0.131353448495585,2,0.12,0.181818181818182,0.474443749,38058,s,y
701,6,1,0.710097142123674,5,0.444,3,0.170359525814434,2,0.12,0.181818181818182,0.474443749,38058,s,y
702,6,0,0,5,0.449,0,0.209180751208571,2,0.12,0.181818181818182,0.474443749,38058,s,y
703,6,1,0.893158447811726,5,0.589,3,0,2,0.12,0.181818181818182,0.474443749,38058,s,y
704,6,1,0.834642029336971,5,0.506,3,0.0402424429089552,2,0.12,0.181818181818182,0.474443749,38058,s,y
705,6,1,0.749625918941637,5,0.447,3,0.0860488283076101,2,0.12,0.181818181818182,0.474443749,38058,s,y
706,6,1,0.707585010446188,5,0.605,3,0.12790317990006,2,0.12,0.181818181818182,0.474443749,38058,s,y
707,6,0,0,5,1.262,0,0.170379444707443,2,0.12,0.181818181818182,0.474443749,38058,s,y
708,6,1,0.866412844012558,5,0.659,3,0,2,0.12,0.181818181818182,0.474443749,38058,s,y
709,6,1,0.826387755843189,5,0.451,3,0.0404874937661435,2,0.12,0.181818181818182,0.474443749,38058,s,y
710,6,1,0.706981603080266,5,0.546,3,0.0792859193736791,2,0.12,0.181818181818182,0.474443749,38058,s,y
711,6,1,0.672924394160201,5,0.963,3,0.118699419509461,2,0.12,0.181818181818182,0.474443749,38058,s,y
712,6,1,0.572813108276259,5,0.579,2,0.161002973122339,2,0.12,0.181818181818182,0.474443749,38058,s,y
713,6,0,0,5,0.631,0,0.200994630871626,2,0.12,0.181818181818182,0.474443749,38058,s,y
714,6,1,0.862439905327972,5,0.508,3,0,2,0.12,0.181818181818182,0.474443749,38058,s,y
715,6,1,0.771960631627388,5,0.515,3,0.0395354621285595,2,0.12,0.181818181818182,0.474443749,38058,s,y
716,6,1,0.745485837300001,5,0.608,3,0.0814824745524162,2,0.12,0.181818181818182,0.474443749,38058,s,y
717,6,1,0.63978532648324,5,0.73,3,0.12148392184294,2,0.12,0.181818181818182,0.474443749,38058,s,y
718,6,1,0.549466389421729,5,0.846,2,0.162038260835499,2,0.12,0.181818181818182,0.474443749,38058,s,y
719,6,1,0.464932273370877,5,0.522,2,0.207362507579506,2,0.12,0.181818181818182,0.474443749,38058,s,y
720,6,0,0,5,0.59,0,0.249849281526906,2,0.12,0.181818181818182,0.474443749,38058,s,y
721,6,1,0.890116890890115,5,0.533,3,0,2,0.12,0.181818181818182,0.474443749,38058,s,y
722,6,1,0.826123688271697,5,0.49,3,0.0395313394274145,2,0.12,0.181818181818182,0.474443749,38058,s,y
723,6,1,0.816792946252675,5,0.756,3,0.0789560957866229,2,0.12,0.181818181818182,0.474443749,38058,s,y
724,6,1,0.71602873596584,5,0.773,3,0.119734584790876,2,0.12,0.181818181818182,0.474443749,38058,s,y
725,6,1,0.59760024648734,5,0.544,2,0.160483722661631,2,0.12,0.181818181818182,0.474443749,38058,s,y
726,6,1,0.583610776334675,5,0.429,2,0.202133183503229,2,0.12,0.181818181818182,0.474443749,38058,s,y
727,6,1,0.503778383513712,5,0.53,2,0.243200911225063,2,0.12,0.181818181818182,0.474443749,38058,s,y
728,6,1,0.428933496350363,5,1.082,2,0.282729986914751,2,0.12,0.181818181818182,0.474443749,38058,s,y
729,6,1,0.315872154163809,5,0.787,1,0.325366187540328,2,0.12,0.181818181818182,0.474443749,38058,s,y
730,6,0,0,5,0.449,0,0.369814812539838,2,0.12,0.181818181818182,0.474443749,38058,s,y
731,6,1,0.869040137897716,5,0.549,3,0,2,0.12,0.181818181818182,0.474443749,38058,s,y
732,6,1,0.771196114928202,5,0.463,3,0.0425902037738688,2,0.12,0.181818181818182,0.474443749,38058,s,y
733,6,1,0.733403268626847,5,0.419,3,0.0841495848448723,2,0.12,0.181818181818182,0.474443749,38058,s,y
734,6,1,0.647066790060135,5,0.481,3,0.123925762747871,2,0.12,0.181818181818182,0.474443749,38058,s,y
735,6,1,0.566544585061031,5,0.599,2,0.164376077245543,2,0.12,0.181818181818182,0.474443749,38058,s,y
736,6,1,0.565488292614484,5,0.43,2,0.204355416863543,2,0.12,0.181818181818182,0.474443749,38058,s,y
737,6,1,0.490363420360563,5,0.514,2,0.246580616667311,2,0.12,0.181818181818182,0.474443749,38058,s,y
738,6,1,0.380627667974222,5,0.515,2,0.285865136223954,2,0.12,0.181818181818182,0.474443749,38058,s,y
739,6,0,0,5,0.632,0,0.327597795673179,2,0.12,0.181818181818182,0.474443749,38058,s,y
741,6,1,0.884604776820991,20,1.231,3,0,2,0.12,0.181818181818182,0.474443749,38058,l,y
742,6,1,0.812121394731192,20,0.414,3,0.0645091090717577,2,0.12,0.181818181818182,0.474443749,38058,l,y
743,6,1,0.76858587034711,20,0.529,3,0.103435203489874,2,0.12,0.181818181818182,0.474443749,38058,l,y
744,6,1,0.685184875871921,20,0.444,3,0.142873697189002,2,0.12,0.181818181818182,0.474443749,38058,l,y
745,6,1,0.549096197781792,20,0.457,2,0.184930256028669,2,0.12,0.181818181818182,0.474443749,38058,l,y
746,6,1,0.49171170634855,20,0.506,2,0.226284346571721,2,0.12,0.181818181818182,0.474443749,38058,l,y
747,6,0,0,20,0.384,0,0.265489880171742,2,0.12,0.181818181818182,0.474443749,38058,l,y
748,6,1,0.880758537685391,20,0.431,3,0,2,0.12,0.181818181818182,0.474443749,38058,l,y
749,6,1,0.817841779888016,20,0.534,3,0.0389711393006337,2,0.12,0.181818181818182,0.474443749,38058,l,y
750,6,1,0.733494054099813,20,0.434,3,0.0788352656627079,2,0.12,0.181818181818182,0.474443749,38058,l,y
751,6,1,0.735023027355692,20,0.431,3,0.12073752304241,2,0.12,0.181818181818182,0.474443749,38058,l,y
752,6,1,0.706121045668429,20,0.466,3,0.159412112702103,2,0.12,0.181818181818182,0.474443749,38058,l,y
753,6,1,0.641709378693037,20,0.399,3,0.201254153659112,2,0.12,0.181818181818182,0.474443749,38058,l,y
754,6,1,0.574715858807155,20,0.38,2,0.239911685330508,2,0.12,0.181818181818182,0.474443749,38058,l,y
755,6,1,0.48003828234204,20,0.48,2,0.280266013351211,2,0.12,0.181818181818182,0.474443749,38058,l,y
756,6,1,0.394866330812706,20,0.833,2,0.321557596249144,2,0.12,0.181818181818182,0.474443749,38058,l,y
757,6,0,0,20,0.512,0,0.363177218728926,2,0.12,0.181818181818182,0.474443749,38058,l,y
758,6,1,0.853128099588255,20,0.469,3,0,2,0.12,0.181818181818182,0.474443749,38058,l,y
759,6,1,0.836318264342123,20,0.447,3,0.0402365661858742,2,0.12,0.181818181818182,0.474443749,38058,l,y
760,6,1,0.739894364739562,20,0.62,3,0.0842757569899928,2,0.12,0.181818181818182,0.474443749,38058,l,y
761,6,1,0.661957659013928,20,0.498,3,0.124776938123906,2,0.12,0.181818181818182,0.474443749,38058,l,y
762,6,1,0.583003058172079,20,0.429,2,0.164473822741657,2,0.12,0.181818181818182,0.474443749,38058,l,y
763,6,1,0.543207915999854,20,0.464,2,0.203440679430329,2,0.12,0.181818181818182,0.474443749,38058,l,y
764,6,1,0.453570344227603,20,0.411,2,0.242577646263861,2,0.12,0.181818181818182,0.474443749,38058,l,y
765,6,0,0,20,0.483,0,0.281210491700559,2,0.12,0.181818181818182,0.474443749,38058,l,y
766,6,1,0.911698737918382,20,0.432,3,0,2,0.12,0.181818181818182,0.474443749,38058,l,y
767,6,1,0.888263018912874,20,0.38,3,0.0392138639549154,2,0.12,0.181818181818182,0.474443749,38058,l,y
768,6,1,0.827466240846567,20,0.673,3,0.0777977466937081,2,0.12,0.181818181818182,0.474443749,38058,l,y
769,6,1,0.779569547013962,20,0.429,3,0.121697272876255,2,0.12,0.181818181818182,0.474443749,38058,l,y
770,6,1,0.750954762657803,20,0.622,3,0.163528707247566,2,0.12,0.181818181818182,0.474443749,38058,l,y
771,6,1,0.666338192472852,20,0.447,3,0.206101503228212,2,0.12,0.181818181818182,0.474443749,38058,l,y
772,6,1,0.609336351599018,20,0.863,2,0.24939481494203,2,0.12,0.181818181818182,0.474443749,38058,l,y
773,6,1,0.586102035141566,20,0.897,2,0.291109379481162,2,0.12,0.181818181818182,0.474443749,38058,l,y
774,6,1,0.548925557584151,20,0.431,2,0.335492530989333,2,0.12,0.181818181818182,0.474443749,38058,l,y
775,6,1,0.483465487065281,20,0.431,2,0.374379237370608,2,0.12,0.181818181818182,0.474443749,38058,l,y
776,6,1,0.43409370322405,20,0.42,2,0.417266955247642,2,0.12,0.181818181818182,0.474443749,38058,l,y
777,7,1,0.855197855082621,20,1.149,3,0,1,0.12,0.145454545454545,0.450707361,39862,l,n
778,7,1,0.759463348335186,20,3.163,3,0.0536698068946773,1,0.12,0.145454545454545,0.450707361,39862,l,n
779,7,1,0.718712926397492,20,0.63,3,0.114026347564415,1,0.12,0.145454545454545,0.450707361,39862,l,n
780,7,1,0.565702414809602,20,0.498,2,0.157357839753932,1,0.12,0.145454545454545,0.450707361,39862,l,n
781,7,1,0.557198717312977,20,0.561,2,0.197009823324448,1,0.12,0.145454545454545,0.450707361,39862,l,n
782,7,1,0.457641966782085,20,0.538,2,0.236382275141104,1,0.12,0.145454545454545,0.450707361,39862,l,n
783,7,1,0.34129238454231,20,0.563,2,0.277043231115829,1,0.12,0.145454545454545,0.450707361,39862,l,n
784,7,1,0.334615291527662,20,0.667,2,0.315939777822759,1,0.12,0.145454545454545,0.450707361,39862,l,n
785,7,1,0.255063897584401,20,0.59,1,0.355733913504695,1,0.12,0.145454545454545,0.450707361,39862,l,n
786,7,1,0.226118009005112,20,0.465,1,0.395132089179028,1,0.12,0.145454545454545,0.450707361,39862,l,n
787,7,1,0.162696464746419,20,0.54,1,0.433386403985548,1,0.12,0.145454545454545,0.450707361,39862,l,n
788,7,1,0.103143624380241,20,0.48,1,0.472483846649841,1,0.12,0.145454545454545,0.450707361,39862,l,n
789,7,1,0.0778226099870229,20,0.481,1,0.510618672325915,1,0.12,0.145454545454545,0.450707361,39862,l,n
790,7,1,0.0901458641434641,20,0.549,1,0.54911309229569,1,0.12,0.145454545454545,0.450707361,39862,l,n
791,7,1,0.0397046721443986,20,0.466,1,0.587872594182613,1,0.12,0.145454545454545,0.450707361,39862,l,n
792,7,1,0,20,0.513,0,0.626223462783046,1,0.12,0.145454545454545,0.450707361,39862,l,n
793,7,0,0,20,2.96,0,0.665631610668743,1,0.12,0.145454545454545,0.450707361,39862,l,n
794,7,1,0.895908149927227,20,0.523,3,0,1,0.12,0.145454545454545,0.450707361,39862,l,n
795,7,1,0.848725873467131,20,0.728,3,0.0428678305866018,1,0.12,0.145454545454545,0.450707361,39862,l,n
796,7,1,0.779163996460087,20,0.83,3,0.0834492237564562,1,0.12,0.145454545454545,0.450707361,39862,l,n
797,7,1,0.766873461118467,20,0.602,3,0.124719634014786,1,0.12,0.145454545454545,0.450707361,39862,l,n
798,7,1,0.717049677135634,20,0.562,3,0.164677487870853,1,0.12,0.145454545454545,0.450707361,39862,l,n
799,7,1,0.65728616280409,20,0.696,3,0.203887593285876,1,0.12,0.145454545454545,0.450707361,39862,l,n
800,7,1,0.577104492019628,20,0.586,2,0.244356066341489,1,0.12,0.145454545454545,0.450707361,39862,l,n
801,7,1,0.538359358945428,20,0.623,2,0.285737775074077,1,0.12,0.145454545454545,0.450707361,39862,l,n
802,7,1,0.483039909916079,20,0.632,2,0.326011531395255,1,0.12,0.145454545454545,0.450707361,39862,l,n
803,7,1,0.417675476075668,20,0.597,2,0.367818624530588,1,0.12,0.145454545454545,0.450707361,39862,l,n
804,7,1,0.317271456191679,20,0.59,1,0.407214593875021,1,0.12,0.145454545454545,0.450707361,39862,l,n
805,7,1,0.243945365081192,20,0.596,1,0.446545505222141,1,0.12,0.145454545454545,0.450707361,39862,l,n
806,7,1,0.212469253844904,20,0.646,1,0.486337312139108,1,0.12,0.145454545454545,0.450707361,39862,l,n
807,7,1,0.142600976774262,20,0.597,1,0.52640651944028,1,0.12,0.145454545454545,0.450707361,39862,l,n
808,7,1,0.104722541325096,20,0.606,1,0.566109703357337,1,0.12,0.145454545454545,0.450707361,39862,l,n
809,7,1,0.0383473983446222,20,0.569,1,0.60551692423466,1,0.12,0.145454545454545,0.450707361,39862,l,n
810,7,1,0,20,0.563,0,0.64459918744918,1,0.12,0.145454545454545,0.450707361,39862,l,n
811,7,0,0,20,0.465,0,0.683800140218197,1,0.12,0.145454545454545,0.450707361,39862,l,n
812,7,1,0.912977831159351,20,1.422,3,0,1,0.12,0.145454545454545,0.450707361,39862,l,n
813,7,1,0.876805663155359,20,0.581,3,0.0447792119096191,1,0.12,0.145454545454545,0.450707361,39862,l,n
814,7,1,0.890743784275969,20,0.483,3,0.0865071245373365,1,0.12,0.145454545454545,0.450707361,39862,l,n
815,7,1,0.817969191348696,20,0.464,3,0.125388301895207,1,0.12,0.145454545454545,0.450707361,39862,l,n
816,7,1,0.761330822858533,20,0.62,3,0.165746336020714,1,0.12,0.145454545454545,0.450707361,39862,l,n
817,7,1,0.682668342779229,20,0.502,3,0.2052430194527,1,0.12,0.145454545454545,0.450707361,39862,l,n
819,7,1,0.657888808600599,5,0.465,3,0,1,0.12,0.145454545454545,0.450707361,39862,s,n
820,7,1,0.594744202738785,5,0.622,2,0.0456271946926435,1,0.12,0.145454545454545,0.450707361,39862,s,n
821,7,1,0.535155937968342,5,0.847,2,0.0856747684668833,1,0.12,0.145454545454545,0.450707361,39862,s,n
822,7,1,0.496564068556206,5,0.456,2,0.130135501777611,1,0.12,0.145454545454545,0.450707361,39862,s,n
823,7,1,0.479200373235138,5,0.512,2,0.169236600003223,1,0.12,0.145454545454545,0.450707361,39862,s,n
824,7,1,0.427517614645538,5,0.546,2,0.20842540921242,1,0.12,0.145454545454545,0.450707361,39862,s,n
825,7,1,0.349951196454774,5,0.5,2,0.248331827846508,1,0.12,0.145454545454545,0.450707361,39862,s,n
826,7,1,0.250347387612299,5,0.816,1,0.287330243028777,1,0.12,0.145454545454545,0.450707361,39862,s,n
827,7,1,0.221009161112012,5,0.556,1,0.328200955261916,1,0.12,0.145454545454545,0.450707361,39862,s,n
828,7,1,0.158966693238288,5,0.524,1,0.367599443270606,1,0.12,0.145454545454545,0.450707361,39862,s,n
829,7,1,0.0729687507575014,5,0.581,1,0.407149098609608,1,0.12,0.145454545454545,0.450707361,39862,s,n
830,7,1,0.0420150062792471,5,0.465,1,0.446848711920293,1,0.12,0.145454545454545,0.450707361,39862,s,n
831,7,0,0,5,0.663,0,0.485866801668403,1,0.12,0.145454545454545,0.450707361,39862,s,n
832,7,1,0.932958088347627,5,0.513,3,0,1,0.12,0.145454545454545,0.450707361,39862,s,n
833,7,1,0.86451415817231,5,0.613,3,0.0414455573712667,1,0.12,0.145454545454545,0.450707361,39862,s,n
834,7,1,0.794219833231323,5,0.579,3,0.0817075349391574,1,0.12,0.145454545454545,0.450707361,39862,s,n
835,7,1,0.726278850495653,5,0.582,3,0.121509986211026,1,0.12,0.145454545454545,0.450707361,39862,s,n
836,7,1,0.574586026177936,5,0.647,2,0.161357835906412,1,0.12,0.145454545454545,0.450707361,39862,s,n
837,7,1,0.563685167801151,5,0.597,2,0.203470224632079,1,0.12,0.145454545454545,0.450707361,39862,s,n
838,7,1,0.486114387931487,5,0.546,2,0.243210751244909,1,0.12,0.145454545454545,0.450707361,39862,s,n
839,7,1,0.445774734756073,5,0.578,2,0.282832126048398,1,0.12,0.145454545454545,0.450707361,39862,s,n
840,7,1,0.416477244832905,5,0.639,2,0.322975371584325,1,0.12,0.145454545454545,0.450707361,39862,s,n
841,7,1,0.400219150740221,5,0.748,2,0.363293991612602,1,0.12,0.145454545454545,0.450707361,39862,s,n
842,7,1,0.273481493752504,5,0.588,1,0.406847725938803,1,0.12,0.145454545454545,0.450707361,39862,s,n
843,7,1,0.166414672412007,5,0.649,1,0.446975047419852,1,0.12,0.145454545454545,0.450707361,39862,s,n
844,7,1,0.0899910638877063,5,0.664,1,0.487431309451428,1,0.12,0.145454545454545,0.450707361,39862,s,n
845,7,1,0.0397257005724188,5,0.664,1,0.527668077888664,1,0.12,0.145454545454545,0.450707361,39862,s,n
846,7,0,0,5,0.418,0,0.568345824958443,1,0.12,0.145454545454545,0.450707361,39862,s,n
847,7,1,0.870162193020295,5,0.509,3,0,1,0.12,0.145454545454545,0.450707361,39862,s,n
848,7,1,0.767094708262913,5,0.582,3,0.039593884382688,1,0.12,0.145454545454545,0.450707361,39862,s,n
849,7,1,0.73929417833305,5,0.588,3,0.0796685987632484,1,0.12,0.145454545454545,0.450707361,39862,s,n
850,7,1,0.698660866162281,5,0.497,3,0.119670176930677,1,0.12,0.145454545454545,0.450707361,39862,s,n
851,7,1,0.627948719462806,5,0.532,2,0.158861562273656,1,0.12,0.145454545454545,0.450707361,39862,s,n
852,7,1,0.569427580326377,5,0.48,2,0.198264647844087,1,0.12,0.145454545454545,0.450707361,39862,s,n
853,7,1,0.482469592184144,5,0.437,2,0.237686296070048,1,0.12,0.145454545454545,0.450707361,39862,s,n
854,7,1,0.447658255719597,5,1.14,2,0.276660484100881,1,0.12,0.145454545454545,0.450707361,39862,s,n
855,7,1,0.392602987280956,5,1.08,2,0.320404714899681,1,0.12,0.145454545454545,0.450707361,39862,s,n
856,7,1,0.402421915213184,5,0.564,2,0.363429589699866,1,0.12,0.145454545454545,0.450707361,39862,s,n
857,7,1,0.399009011038952,5,0.506,2,0.402903497710509,1,0.12,0.145454545454545,0.450707361,39862,s,n
858,7,1,0.319141762146802,5,0.464,1,0.442307457817141,1,0.12,0.145454545454545,0.450707361,39862,s,n
859,7,1,0.287366339892593,5,0.463,1,0.481737426630383,1,0.12,0.145454545454545,0.450707361,39862,s,n
860,7,1,0.226927263645394,5,0.5,1,0.520808408327916,1,0.12,0.145454545454545,0.450707361,39862,s,n
861,7,1,0.223116643447863,5,0.58,1,0.560008014311181,1,0.12,0.145454545454545,0.450707361,39862,s,n
862,7,1,0.187558297930765,5,0.597,1,0.599755262359383,1,0.12,0.145454545454545,0.450707361,39862,s,n
863,7,1,0.915003062289372,5,0.43,3,0,2,0.56,0.145454545454545,0.474993448,39862,s,y
864,7,1,0.838687157917622,5,0.538,3,0.0482726841906462,2,0.56,0.145454545454545,0.474993448,39862,s,y
865,7,1,0.768729826556913,5,0.428,3,0.088726549993031,2,0.56,0.145454545454545,0.474993448,39862,s,y
866,7,1,0.714525044156777,5,0.529,3,0.126955980496628,2,0.56,0.145454545454545,0.474993448,39862,s,y
867,7,1,0.63333894229937,5,0.52,2,0.165976546431524,2,0.56,0.145454545454545,0.474993448,39862,s,y
868,7,1,0.544776732241512,5,0.53,2,0.205159856057357,2,0.56,0.145454545454545,0.474993448,39862,s,y
869,7,1,0.476611268784897,5,0.431,2,0.244553581591765,2,0.56,0.145454545454545,0.474993448,39862,s,y
870,7,1,0.476820070261431,5,0.863,2,0.282591746030908,2,0.56,0.145454545454545,0.474993448,39862,s,y
871,7,1,0.435087820400589,5,0.89,2,0.32340253504357,2,0.56,0.145454545454545,0.474993448,39862,s,y
872,7,1,0.339869024632105,5,0.531,2,0.364458179200393,2,0.56,0.145454545454545,0.474993448,39862,s,y
873,7,1,0.271183397619829,5,0.736,1,0.403373153634413,2,0.56,0.145454545454545,0.474993448,39862,s,y
874,7,1,0.193728582840051,5,0.001,1,0.443412314370399,2,0.56,0.145454545454545,0.474993448,39862,s,y
875,7,1,0.135094218817246,5,0.646,1,0.479023028677111,2,0.56,0.145454545454545,0.474993448,39862,s,y
876,7,1,0.0719547700410034,5,0.454,1,0.518614871642437,2,0.56,0.145454545454545,0.474993448,39862,s,y
877,7,1,0,5,1.179,0,0.556639853073022,2,0.56,0.145454545454545,0.474993448,39862,s,y
878,7,0,0,5,0.566,0,0.59925231659033,2,0.56,0.145454545454545,0.474993448,39862,s,y
879,7,1,0.913520198310384,5,0.606,3,0,2,0.56,0.145454545454545,0.474993448,39862,s,y
880,7,1,0.882644697349952,5,0.65,3,0.0399391037999224,2,0.56,0.145454545454545,0.474993448,39862,s,y
881,7,1,0.769825892791371,5,1.072,3,0.0801025686128112,2,0.56,0.145454545454545,0.474993448,39862,s,y
882,7,1,0.716492079212223,5,0.532,3,0.122865194993137,2,0.56,0.145454545454545,0.474993448,39862,s,y
883,7,1,0.62661555691217,5,0.478,2,0.162289102021171,2,0.56,0.145454545454545,0.474993448,39862,s,y
884,7,1,0.555387749665951,5,0.498,2,0.201028569533071,2,0.56,0.145454545454545,0.474993448,39862,s,y
885,7,1,0.489124921938544,5,0.516,2,0.240012005159558,2,0.56,0.145454545454545,0.474993448,39862,s,y
886,7,1,0.469068185666157,5,0.53,2,0.279029087941702,2,0.56,0.145454545454545,0.474993448,39862,s,y
887,7,1,0.435734164505632,5,0.882,2,0.318028744965375,2,0.56,0.145454545454545,0.474993448,39862,s,y
888,7,1,0.352106312555954,5,0.549,2,0.361730988031842,2,0.56,0.145454545454545,0.474993448,39862,s,y
889,7,1,0.281295482242308,5,0.518,1,0.401033019694939,2,0.56,0.145454545454545,0.474993448,39862,s,y
890,7,1,0.231047705591128,5,0.522,1,0.442527328711385,2,0.56,0.145454545454545,0.474993448,39862,s,y
891,7,1,0.136972641659068,5,0.58,1,0.481836926361956,2,0.56,0.145454545454545,0.474993448,39862,s,y
892,7,1,0.0498602334721737,5,0.58,1,0.521339231812375,2,0.56,0.145454545454545,0.474993448,39862,s,y
893,7,0,0,5,0.397,0,0.560876138912247,2,0.56,0.145454545454545,0.474993448,39862,s,y
894,7,1,0.92307355879397,5,0.503,3,0,2,0.56,0.145454545454545,0.474993448,39862,s,y
895,7,1,0.855960566100223,5,0.382,3,0.0389163262171151,2,0.56,0.145454545454545,0.474993448,39862,s,y
896,7,1,0.824235335655829,5,0.483,3,0.0773379198094412,2,0.56,0.145454545454545,0.474993448,39862,s,y
897,7,1,0.763786339027118,5,0.506,3,0.115821443058155,2,0.56,0.145454545454545,0.474993448,39862,s,y
898,7,1,0.716657502844661,5,0.489,3,0.154687640860244,2,0.56,0.145454545454545,0.474993448,39862,s,y
899,7,1,0.616660482376697,5,0.446,2,0.193461842451364,2,0.56,0.145454545454545,0.474993448,39862,s,y
900,7,1,0.506431833823632,5,0.432,2,0.231907333370044,2,0.56,0.145454545454545,0.474993448,39862,s,y
901,7,1,0.421198424522962,5,0.435,2,0.270304384977901,2,0.56,0.145454545454545,0.474993448,39862,s,y
902,7,1,0.33536763075764,5,0.465,2,0.308822062613266,2,0.56,0.145454545454545,0.474993448,39862,s,y
903,7,1,0.300389864599191,5,0.482,1,0.347632794830829,2,0.56,0.145454545454545,0.474993448,39862,s,y
904,7,1,0.22969914624282,5,0.473,1,0.386497268547266,2,0.56,0.145454545454545,0.474993448,39862,s,y
905,7,1,0.184770228293624,5,0.546,1,0.425361709780931,2,0.56,0.145454545454545,0.474993448,39862,s,y
906,7,1,0.0780879380018789,5,0.495,1,0.464278698146883,2,0.56,0.145454545454545,0.474993448,39862,s,y
907,7,1,0.0059417125689997,5,0.431,1,0.503150860285861,2,0.56,0.145454545454545,0.474993448,39862,s,y
908,7,0,0,5,0.432,0,0.541909867435162,2,0.56,0.145454545454545,0.474993448,39862,s,y
909,7,1,0.862830525311096,5,0.564,3,0,2,0.56,0.145454545454545,0.474993448,39862,s,y
911,7,1,0.795163777083549,20,0.001,3,0,2,0.56,0.145454545454545,0.474993448,39862,l,y
912,7,1,0.740330175628958,20,0.573,3,0.0423452577265272,2,0.56,0.145454545454545,0.474993448,39862,l,y
913,7,1,0.672400261752102,20,0.499,3,0.0980062686112779,2,0.56,0.145454545454545,0.474993448,39862,l,y
914,7,1,0.562807915230001,20,0.523,2,0.136864932908665,2,0.56,0.145454545454545,0.474993448,39862,l,y
915,7,1,0.478210484630367,20,0.59,2,0.177754362715174,2,0.56,0.145454545454545,0.474993448,39862,l,y
916,7,1,0.439518805617516,20,0.697,2,0.217411268675164,2,0.56,0.145454545454545,0.474993448,39862,l,y
917,7,1,0.417177868256077,20,0.566,2,0.257863280460804,2,0.56,0.145454545454545,0.474993448,39862,l,y
918,7,1,0.441835526282508,20,0.481,2,0.297367714782202,2,0.56,0.145454545454545,0.474993448,39862,l,y
919,7,1,0.388530609738936,20,0.489,2,0.336240569054117,2,0.56,0.145454545454545,0.474993448,39862,l,y
920,7,1,0.246254198715568,20,0.478,1,0.375313292328027,2,0.56,0.145454545454545,0.474993448,39862,l,y
921,7,1,0.213537894460095,20,0.499,1,0.415879913332112,2,0.56,0.145454545454545,0.474993448,39862,l,y
922,7,1,0.136092158557439,20,0.531,1,0.454983252869074,2,0.56,0.145454545454545,0.474993448,39862,l,y
923,7,1,0.0848310747300584,20,0.513,1,0.494182851356313,2,0.56,0.145454545454545,0.474993448,39862,l,y
924,7,1,0,20,0.448,0,0.533249540330438,2,0.56,0.145454545454545,0.474993448,39862,l,y
925,7,0,0,20,0.88,0,0.571740926908935,2,0.56,0.145454545454545,0.474993448,39862,l,y
926,7,1,0.866975702608226,20,0.45,3,0,2,0.56,0.145454545454545,0.474993448,39862,l,y
927,7,1,0.757896902092501,20,0.529,3,0.0389906443034576,2,0.56,0.145454545454545,0.474993448,39862,l,y
928,7,1,0.687604205493654,20,0.48,3,0.078397770231137,2,0.56,0.145454545454545,0.474993448,39862,l,y
929,7,1,0.628385910193502,20,0.68,2,0.117593320865105,2,0.56,0.145454545454545,0.474993448,39862,l,y
930,7,1,0.557647830590918,20,0.582,2,0.158173547153799,2,0.56,0.145454545454545,0.474993448,39862,l,y
931,7,1,0.518094193594651,20,0.447,2,0.198064778842093,2,0.56,0.145454545454545,0.474993448,39862,l,y
932,7,1,0.442243966061169,20,0.547,2,0.237039644013812,2,0.56,0.145454545454545,0.474993448,39862,l,y
933,7,1,0.346408818889638,20,0.447,2,0.276449456016965,2,0.56,0.145454545454545,0.474993448,39862,l,y
934,7,1,0.310942886500585,20,0.488,1,0.315344026272082,2,0.56,0.145454545454545,0.474993448,39862,l,y
935,7,1,0.2271680628648,20,0.464,1,0.354438060743867,2,0.56,0.145454545454545,0.474993448,39862,l,y
936,7,1,0.128087375711616,20,0.564,1,0.393727856396178,2,0.56,0.145454545454545,0.474993448,39862,l,y
937,7,1,0.0802289308339246,20,0.462,1,0.433353031684128,2,0.56,0.145454545454545,0.474993448,39862,l,y
938,7,1,0.0164398266676784,20,0.447,1,0.472344700444279,2,0.56,0.145454545454545,0.474993448,39862,l,y
939,7,0,0,20,0.582,0,0.511424837286494,2,0.56,0.145454545454545,0.474993448,39862,l,y
940,7,1,0.834754282726007,20,0.579,3,0,2,0.56,0.145454545454545,0.474993448,39862,l,y
941,7,1,0.819639299141568,20,0.514,3,0.0400464943466998,2,0.56,0.145454545454545,0.474993448,39862,l,y
942,7,1,0.766793258469677,20,0.533,3,0.079523073440768,2,0.56,0.145454545454545,0.474993448,39862,l,y
943,7,1,0.681249822753486,20,0.531,3,0.11927218300174,2,0.56,0.145454545454545,0.474993448,39862,l,y
944,7,1,0.602466051919856,20,0.965,2,0.158458146220274,2,0.56,0.145454545454545,0.474993448,39862,l,y
945,7,1,0.5104167738669,20,0.625,2,0.200526475812146,2,0.56,0.145454545454545,0.474993448,39862,l,y
946,7,1,0.384488274672703,20,0.697,2,0.240969217514058,2,0.56,0.145454545454545,0.474993448,39862,l,y
947,7,1,0.288873872872486,20,0.517,1,0.281433252923121,2,0.56,0.145454545454545,0.474993448,39862,l,y
948,7,1,0.227288706779723,20,0.536,1,0.320750883813365,2,0.56,0.145454545454545,0.474993448,39862,l,y
949,7,1,0.148121655293415,20,0.481,1,0.360340425499147,2,0.56,0.145454545454545,0.474993448,39862,l,y
950,7,1,0.115806504316159,20,0.53,1,0.399476899963417,2,0.56,0.145454545454545,0.474993448,39862,l,y
951,8,1,0.854956041608672,5,0.695,3,0,1,0.12,0.509090909090909,0.47133127,41302,s,n
952,8,1,0.782750701422493,5,0.812,3,0.0582546990936861,1,0.12,0.509090909090909,0.47133127,41302,s,n
953,8,0,0,5,0.001,0,0.104236661588776,1,0.12,0.509090909090909,0.47133127,41302,s,n
954,8,1,0.936103156595962,5,0.668,3,0,1,0.12,0.509090909090909,0.47133127,41302,s,n
955,8,1,0.838953272159454,5,0.738,3,0.0403565642737344,1,0.12,0.509090909090909,0.47133127,41302,s,n
956,8,1,0.782305548596802,5,1.147,3,0.0847946101722511,1,0.12,0.509090909090909,0.47133127,41302,s,n
957,8,0,0,5,0.001,0,0.130882353682782,1,0.12,0.509090909090909,0.47133127,41302,s,n
958,8,1,0.918681751633702,5,0.646,3,0,1,0.12,0.509090909090909,0.47133127,41302,s,n
959,8,1,0.83732557314082,5,0.632,3,0.0399185135352334,1,0.12,0.509090909090909,0.47133127,41302,s,n
960,8,1,0.806218062460379,5,0.558,3,0.0837708510306482,1,0.12,0.509090909090909,0.47133127,41302,s,n
961,8,0,0,5,0.002,0,0.124998329673768,1,0.12,0.509090909090909,0.47133127,41302,s,n
962,8,1,0.949759759317382,5,0.58,3,0,1,0.12,0.509090909090909,0.47133127,41302,s,n
963,8,1,0.885328828267586,5,0.63,3,0.0396561573276943,1,0.12,0.509090909090909,0.47133127,41302,s,n
964,8,1,0.824466980404401,5,1.003,3,0.0824112166764435,1,0.12,0.509090909090909,0.47133127,41302,s,n
965,8,0,0,5,0.001,0,0.124852191162073,1,0.12,0.509090909090909,0.47133127,41302,s,n
966,8,1,0.956342534262704,5,0.699,3,0,1,0.12,0.509090909090909,0.47133127,41302,s,n
967,8,1,0.87711006202853,5,0.754,3,0.0458062904515882,1,0.12,0.509090909090909,0.47133127,41302,s,n
968,8,1,0.833732568478036,5,1.531,3,0.0864589970933583,1,0.12,0.509090909090909,0.47133127,41302,s,n
969,8,0,0,5,0.001,0,0.131504361844773,1,0.12,0.509090909090909,0.47133127,41302,s,n
970,8,1,0.840699272462907,5,0.664,3,0,1,0.12,0.509090909090909,0.47133127,41302,s,n
971,8,1,0.748086297021349,5,0.93,3,0.0398564081658124,1,0.12,0.509090909090909,0.47133127,41302,s,n
972,8,1,0.65198977726415,5,0.613,3,0.0815848124877339,1,0.12,0.509090909090909,0.47133127,41302,s,n
973,8,0,0,5,0.001,0,0.126057853872416,1,0.12,0.509090909090909,0.47133127,41302,s,n
974,8,1,0.902380978932951,5,0.698,3,0,1,0.12,0.509090909090909,0.47133127,41302,s,n
975,8,1,0.838788669313635,5,1.513,3,0.0475924719588088,1,0.12,0.509090909090909,0.47133127,41302,s,n
976,8,1,0.795505846982715,5,0.614,3,0.0932376322581909,1,0.12,0.509090909090909,0.47133127,41302,s,n
977,8,0,0,5,0.001,0,0.132734423450046,1,0.12,0.509090909090909,0.47133127,41302,s,n
978,8,1,0.923973537191399,5,0.53,3,0,1,0.12,0.509090909090909,0.47133127,41302,s,n
979,8,1,0.897284361847465,5,0.997,3,0.044592814597933,1,0.12,0.509090909090909,0.47133127,41302,s,n
980,8,1,0.863427512837139,5,1.148,3,0.0865381154761525,1,0.12,0.509090909090909,0.47133127,41302,s,n
981,8,0,0,5,0.001,0,0.129444652859225,1,0.12,0.509090909090909,0.47133127,41302,s,n
982,8,1,0.894931373337032,5,0.629,3,0,1,0.12,0.509090909090909,0.47133127,41302,s,n
983,8,1,0.855865958735923,5,1.049,3,0.0420749036104319,1,0.12,0.509090909090909,0.47133127,41302,s,n
984,8,1,0.768824804334037,5,0.748,3,0.0847066842006578,1,0.12,0.509090909090909,0.47133127,41302,s,n
985,8,0,0,5,0.001,0,0.124781970317922,1,0.12,0.509090909090909,0.47133127,41302,s,n
986,8,0,0,5,0.681,0,0,1,0.12,0.509090909090909,0.47133127,41302,s,n
987,8,1,0.907246243866804,5,0.614,3,0,1,0.12,0.509090909090909,0.47133127,41302,s,n
989,8,1,0.898507774902457,20,0.683,3,0,1,0.12,0.509090909090909,0.47133127,41302,l,n
990,8,1,0.828607516818687,20,0.905,3,0.0481515901888584,1,0.12,0.509090909090909,0.47133127,41302,l,n
991,8,1,0.721696891167377,20,1.429,3,0.0925097206490278,1,0.12,0.509090909090909,0.47133127,41302,l,n
992,8,0,0,20,0.002,0,0.140346551350943,1,0.12,0.509090909090909,0.47133127,41302,l,n
993,8,1,0.856843863113568,20,0.752,3,0,1,0.12,0.509090909090909,0.47133127,41302,l,n
994,8,1,0.786041779003846,20,0.78,3,0.0467680416694326,1,0.12,0.509090909090909,0.47133127,41302,l,n
995,8,1,0.730926179291233,20,1.249,3,0.0926745162573391,1,0.12,0.509090909090909,0.47133127,41302,l,n
996,8,1,0.717388892978848,20,0.518,3,0.1368232959536,1,0.12,0.509090909090909,0.47133127,41302,l,n
997,8,0,0,20,0.001,0,0.239056302300697,1,0.12,0.509090909090909,0.47133127,41302,l,n
998,8,1,0.932214376716521,20,0.646,3,0,1,0.12,0.509090909090909,0.47133127,41302,l,n
999,8,1,0.854743366199567,20,2.413,3,0.040032974710531,1,0.12,0.509090909090909,0.47133127,41302,l,n
1000,8,1,0.780754826715622,20,0.772,3,0.0917041998155491,1,0.12,0.509090909090909,0.47133127,41302,l,n
1001,8,0,0,20,0.002,0,0.132653431112189,1,0.12,0.509090909090909,0.47133127,41302,l,n
1002,8,1,0.852830622241155,20,1.081,3,0,1,0.12,0.509090909090909,0.47133127,41302,l,n
1003,8,1,0.741260221699194,20,1.872,3,0.0464839925580751,1,0.12,0.509090909090909,0.47133127,41302,l,n
1004,8,1,0.707487695235549,20,0.819,3,0.0991979687146154,1,0.12,0.509090909090909,0.47133127,41302,l,n
1005,8,0,0,20,0.001,0,0.14135106122613,1,0.12,0.509090909090909,0.47133127,41302,l,n
1006,8,1,0.853463760830645,20,0.596,3,0,1,0.12,0.509090909090909,0.47133127,41302,l,n
1007,8,1,0.832418769630259,20,0.779,3,0.0404548344772802,1,0.12,0.509090909090909,0.47133127,41302,l,n
1008,8,1,0.759867019607807,20,1.88,3,0.0813294099027841,1,0.12,0.509090909090909,0.47133127,41302,l,n
1009,8,0,0,20,0.001,0,0.132567781371346,1,0.12,0.509090909090909,0.47133127,41302,l,n
1010,8,1,0.890401860000406,20,0.53,3,0,1,0.12,0.509090909090909,0.47133127,41302,l,n
1011,8,1,0.782218728827119,20,0.716,3,0.0660257483784201,1,0.12,0.509090909090909,0.47133127,41302,l,n
1012,8,1,0.928071757108154,20,0.921,3,0,2,0.293333333333333,0.509090909090909,0.43231765,41302,l,y
1013,8,1,0.868934689545705,20,0.612,3,0.0693967086970303,2,0.293333333333333,0.509090909090909,0.43231765,41302,l,y
1014,8,1,0.788548677811709,20,0.554,3,0.115841353195981,2,0.293333333333333,0.509090909090909,0.43231765,41302,l,y
1015,8,0,0,20,0.002,0,0.155843722472408,2,0.293333333333333,0.509090909090909,0.43231765,41302,l,y
1016,8,1,0.932133538256312,20,0.363,3,0,2,0.293333333333333,0.509090909090909,0.43231765,41302,l,y
1017,8,1,0.920884786251993,20,0.864,3,0.0389765462856489,2,0.293333333333333,0.509090909090909,0.43231765,41302,l,y
1018,8,0,0,20,0.002,0,0.0807015025302515,2,0.293333333333333,0.509090909090909,0.43231765,41302,l,y
1019,8,0,0,20,0.001,0,0,2,0.293333333333333,0.509090909090909,0.43231765,41302,l,y
1020,8,0,0,20,0.001,0,0,2,0.293333333333333,0.509090909090909,0.43231765,41302,l,y
1021,8,1,0.893869662972139,20,1.794,3,0,2,0.293333333333333,0.509090909090909,0.43231765,41302,l,y
1022,8,0,0,20,0.001,0,0.0482438562403782,2,0.293333333333333,0.509090909090909,0.43231765,41302,l,y
1023,8,0,0,20,0.001,0,0,2,0.293333333333333,0.509090909090909,0.43231765,41302,l,y
1024,8,0,0,20,6.05,0,0,2,0.293333333333333,0.509090909090909,0.43231765,41302,l,y
1025,8,1,0.869635131044764,20,0.555,3,0,2,0.293333333333333,0.509090909090909,0.43231765,41302,l,y
1026,8,0,0,20,0.001,0,0.0400572961486526,2,0.293333333333333,0.509090909090909,0.43231765,41302,l,y
1027,8,0,0,20,0.001,0,0,2,0.293333333333333,0.509090909090909,0.43231765,41302,l,y
1028,8,0,0,20,1.165,0,0,2,0.293333333333333,0.509090909090909,0.43231765,41302,l,y
1030,8,0,0,5,0.001,0,0,2,0.293333333333333,0.509090909090909,0.43231765,41302,s,y
1031,8,1,0.90353640541268,5,3.113,3,0,2,0.293333333333333,0.509090909090909,0.43231765,41302,s,y
1032,8,0,0,5,0.001,0,0.0587500228961507,2,0.293333333333333,0.509090909090909,0.43231765,41302,s,y
1033,8,0,0,5,0.003,0,0,2,0.293333333333333,0.509090909090909,0.43231765,41302,s,y
1034,8,0,0,5,0.001,0,0,2,0.293333333333333,0.509090909090909,0.43231765,41302,s,y
1035,8,1,0.879868906768229,5,0.676,3,0,2,0.293333333333333,0.509090909090909,0.43231765,41302,s,y
1036,8,0,0,5,0.001,0,0.0410868595537389,2,0.293333333333333,0.509090909090909,0.43231765,41302,s,y
1037,8,0,0,5,0.001,0,0,2,0.293333333333333,0.509090909090909,0.43231765,41302,s,y
1038,8,0,0,5,0.001,0,0,2,0.293333333333333,0.509090909090909,0.43231765,41302,s,y
1039,8,0,0,5,0.001,0,0,2,0.293333333333333,0.509090909090909,0.43231765,41302,s,y
1040,8,0,0,5,0.707,0,0,2,0.293333333333333,0.509090909090909,0.43231765,41302,s,y
1041,8,1,0.835802138693818,5,0.513,3,0,2,0.293333333333333,0.509090909090909,0.43231765,41302,s,y
1042,8,0,0,5,0.001,0,0.0398706227396218,2,0.293333333333333,0.509090909090909,0.43231765,41302,s,y
1043,8,0,0,5,0.001,0,0,2,0.293333333333333,0.509090909090909,0.43231765,41302,s,y
1044,8,0,0,5,0.002,0,0,2,0.293333333333333,0.509090909090909,0.43231765,41302,s,y
1045,8,1,0.884687143375137,5,1.197,3,0,2,0.293333333333333,0.509090909090909,0.43231765,41302,s,y
1046,8,0,0,5,0.001,0,0.0439272732105048,2,0.293333333333333,0.509090909090909,0.43231765,41302,s,y
1047,8,0,0,5,0.001,0,0,2,0.293333333333333,0.509090909090909,0.43231765,41302,s,y
1048,8,0,0,5,0.001,0,0,2,0.293333333333333,0.509090909090909,0.43231765,41302,s,y
1049,8,0,0,5,1.465,0,0,2,0.293333333333333,0.509090909090909,0.43231765,41302,s,y
1050,8,1,0.899605880086555,5,0.55,3,0,2,0.293333333333333,0.509090909090909,0.43231765,41302,s,y
1051,8,0,0,5,0.001,0,0.0405657451323812,2,0.293333333333333,0.509090909090909,0.43231765,41302,s,y
1052,8,0,0,5,0.002,0,0,2,0.293333333333333,0.509090909090909,0.43231765,41302,s,y
1053,8,0,0,5,0.001,0,0,2,0.293333333333333,0.509090909090909,0.43231765,41302,s,y
1054,8,1,0.896275010807082,5,0.445,3,0,2,0.293333333333333,0.509090909090909,0.43231765,41302,s,y
1055,8,1,0.825853950737664,5,1.031,3,0.0393952877911715,2,0.293333333333333,0.509090909090909,0.43231765,41302,s,y
1056,8,1,0.722983649063573,5,0.889,3,0.084800951636188,2,0.293333333333333,0.509090909090909,0.43231765,41302,s,y
1057,8,0,0,5,0.936,0,0.135093315608046,2,0.293333333333333,0.509090909090909,0.43231765,41302,s,y
1058,8,0,0,5,0.001,0,0,2,0.293333333333333,0.509090909090909,0.43231765,41302,s,y
1059,9,1,0.854925767553614,20,2.629,3,0,1,0.106666666666667,0.472727272727273,0.381021948,41645,l,n
1060,9,1,0.763201900454176,20,0.731,3,0.0856361768883731,1,0.106666666666667,0.472727272727273,0.381021948,41645,l,n
1061,9,1,0.732899201045302,20,0.879,3,0.125976509660596,1,0.106666666666667,0.472727272727273,0.381021948,41645,l,n
1062,9,1,0.687445732736417,20,0.89,3,0.166862315427576,1,0.106666666666667,0.472727272727273,0.381021948,41645,l,n
1063,9,1,0.604907022338454,20,0.738,2,0.210499395430974,1,0.106666666666667,0.472727272727273,0.381021948,41645,l,n
1064,9,1,0.497734193843022,20,0.531,2,0.25356913954411,1,0.106666666666667,0.472727272727273,0.381021948,41645,l,n
1065,9,0,0,20,0.001,0,0.292492994060119,1,0.106666666666667,0.472727272727273,0.381021948,41645,l,n
1066,9,1,0.881785072530951,20,2.496,3,0,1,0.106666666666667,0.472727272727273,0.381021948,41645,l,n
1067,9,1,0.80178319140919,20,0.747,3,0.0515845823091304,1,0.106666666666667,0.472727272727273,0.381021948,41645,l,n
1068,9,1,0.732964538888235,20,0.688,3,0.0932041967974254,1,0.106666666666667,0.472727272727273,0.381021948,41645,l,n
1069,9,1,0.669892042451471,20,1.012,3,0.133770327055149,1,0.106666666666667,0.472727272727273,0.381021948,41645,l,n
1070,9,1,0.550081753719655,20,0.81,2,0.175946648318567,1,0.106666666666667,0.472727272727273,0.381021948,41645,l,n
1071,9,1,0.445486653331782,20,0.623,2,0.217118967955019,1,0.106666666666667,0.472727272727273,0.381021948,41645,l,n
1072,9,1,0.388508767096176,20,0.629,2,0.256975271213797,1,0.106666666666667,0.472727272727273,0.381021948,41645,l,n
1073,9,1,0.337291763859801,20,0.649,2,0.296546879596012,1,0.106666666666667,0.472727272727273,0.381021948,41645,l,n
1074,9,1,0.307851467149183,20,0.722,1,0.336057719123377,1,0.106666666666667,0.472727272727273,0.381021948,41645,l,n
1075,9,1,0.276247133514894,20,1.017,1,0.37663508566006,1,0.106666666666667,0.472727272727273,0.381021948,41645,l,n
1076,9,1,0.199342499662935,20,1.546,1,0.420605995835864,1,0.106666666666667,0.472727272727273,0.381021948,41645,l,n
1077,9,0,0,20,0.001,0,0.466204245023214,1,0.106666666666667,0.472727272727273,0.381021948,41645,l,n
1078,9,1,0.883820937987614,20,0.723,3,0,1,0.106666666666667,0.472727272727273,0.381021948,41645,l,n
1079,9,1,0.884121199317061,20,0.639,3,0.0512618984654569,1,0.106666666666667,0.472727272727273,0.381021948,41645,l,n
1080,9,1,0.800485657161973,20,0.739,3,0.0911163252631435,1,0.106666666666667,0.472727272727273,0.381021948,41645,l,n
1081,9,1,0.738961838326492,20,0.881,3,0.131223736993835,1,0.106666666666667,0.472727272727273,0.381021948,41645,l,n
1082,9,1,0.696939852219743,20,0.729,3,0.17226348502955,1,0.106666666666667,0.472727272727273,0.381021948,41645,l,n
1083,9,1,0.661335683145158,20,1.097,3,0.212255573110045,1,0.106666666666667,0.472727272727273,0.381021948,41645,l,n
1084,9,1,0.604345591665762,20,0.851,2,0.254625634607714,1,0.106666666666667,0.472727272727273,0.381021948,41645,l,n
1085,9,1,0.569009744929559,20,0.626,2,0.299748599439821,1,0.106666666666667,0.472727272727273,0.381021948,41645,l,n
1086,9,1,0.528392273898425,20,1.164,2,0.339027664790697,1,0.106666666666667,0.472727272727273,0.381021948,41645,l,n
1087,9,1,0.451373621327573,20,0.772,2,0.38178260319837,1,0.106666666666667,0.472727272727273,0.381021948,41645,l,n
1088,9,1,0.386879000461688,20,0.63,2,0.425226390219853,1,0.106666666666667,0.472727272727273,0.381021948,41645,l,n
1089,9,1,0.320916270154117,20,0.602,2,0.471552903698218,1,0.106666666666667,0.472727272727273,0.381021948,41645,l,n
1090,9,1,0.283207299401675,20,0.581,1,0.510849571803197,1,0.106666666666667,0.472727272727273,0.381021948,41645,l,n
1091,9,1,0.245723655775154,20,2.159,1,0.550167640559561,1,0.106666666666667,0.472727272727273,0.381021948,41645,l,n
1092,9,0,0,20,0.58,0,0.599143249846154,1,0.106666666666667,0.472727272727273,0.381021948,41645,l,n
1093,9,1,0.864222791872374,20,0.589,3,0,1,0.106666666666667,0.472727272727273,0.381021948,41645,l,n
1095,9,1,0.804908708390227,5,0.832,3,0,1,0.106666666666667,0.472727272727273,0.381021948,41645,s,n
1096,9,1,0.785479262829677,5,0.511,3,0.0677865744546648,1,0.106666666666667,0.472727272727273,0.381021948,41645,s,n
1097,9,1,0.66243898259339,5,0.964,3,0.110530751320554,1,0.106666666666667,0.472727272727273,0.381021948,41645,s,n
1098,9,0,0,5,0.748,0,0.152255694992564,1,0.106666666666667,0.472727272727273,0.381021948,41645,s,n
1099,9,1,0.892192015070204,5,0.55,3,0,1,0.106666666666667,0.472727272727273,0.381021948,41645,s,n
1100,9,1,0.827033264905515,5,0.893,3,0.0448116821760611,1,0.106666666666667,0.472727272727273,0.381021948,41645,s,n
1101,9,0,0,5,0.614,0,0.0888543051475466,1,0.106666666666667,0.472727272727273,0.381021948,41645,s,n
1102,9,1,0.840694700100458,5,0.679,3,0,1,0.106666666666667,0.472727272727273,0.381021948,41645,s,n
1103,9,1,0.778062389103041,5,0.732,3,0.042990448016034,1,0.106666666666667,0.472727272727273,0.381021948,41645,s,n
1104,9,1,0.737505658340252,5,0.604,3,0.0836652880857612,1,0.106666666666667,0.472727272727273,0.381021948,41645,s,n
1105,9,0,0,5,0.481,0,0.12324286316448,1,0.106666666666667,0.472727272727273,0.381021948,41645,s,n
1106,9,1,0.896841666136243,5,0.637,3,0,1,0.106666666666667,0.472727272727273,0.381021948,41645,s,n
1107,9,1,0.789087382030548,5,0.635,3,0.0399799048258479,1,0.106666666666667,0.472727272727273,0.381021948,41645,s,n
1108,9,0,0,5,0.637,0,0.0796277160178206,1,0.106666666666667,0.472727272727273,0.381021948,41645,s,n
1109,9,1,0.837520490569449,5,0.588,3,0,1,0.106666666666667,0.472727272727273,0.381021948,41645,s,n
1110,9,0,0,5,1.03,0,0.0425029204393264,1,0.106666666666667,0.472727272727273,0.381021948,41645,s,n
1111,9,1,0.879689268115308,5,0.781,3,0,1,0.106666666666667,0.472727272727273,0.381021948,41645,s,n
1112,9,1,0.860580828139804,5,0.696,3,0.0454141561118639,1,0.106666666666667,0.472727272727273,0.381021948,41645,s,n
1113,9,1,0.78298649788019,5,0.528,3,0.0855192541235674,1,0.106666666666667,0.472727272727273,0.381021948,41645,s,n
1114,9,0,0,5,0.828,0,0.12759938614286,1,0.106666666666667,0.472727272727273,0.381021948,41645,s,n
1115,9,1,0.899294849510405,5,0.748,3,0,1,0.106666666666667,0.472727272727273,0.381021948,41645,s,n
1116,9,1,0.793996289493002,5,0.686,3,0.0405643237579357,1,0.106666666666667,0.472727272727273,0.381021948,41645,s,n
1117,9,0,0,5,0.515,0,0.0807748309090508,1,0.106666666666667,0.472727272727273,0.381021948,41645,s,n
1118,9,1,0.931530947749592,5,0.867,3,0,1,0.106666666666667,0.472727272727273,0.381021948,41645,s,n
1119,9,1,0.862268039232234,5,0.512,3,0.0413433049691425,1,0.106666666666667,0.472727272727273,0.381021948,41645,s,n
1120,9,1,0.797492732684382,5,0.463,3,0.0807503919398848,1,0.106666666666667,0.472727272727273,0.381021948,41645,s,n
1121,9,0,0,5,0.683,0,0.122577269175606,1,0.106666666666667,0.472727272727273,0.381021948,41645,s,n
1122,9,1,0.921444479113802,5,0.739,3,0,1,0.106666666666667,0.472727272727273,0.381021948,41645,s,n
1123,9,1,0.825974661278778,5,0.773,3,0.0406990666565069,1,0.106666666666667,0.472727272727273,0.381021948,41645,s,n
1124,9,0,0,5,0.681,0,0.0827507819089644,1,0.106666666666667,0.472727272727273,0.381021948,41645,s,n
1125,9,1,0.900662806881906,5,0.766,3,0,1,0.106666666666667,0.472727272727273,0.381021948,41645,s,n
1126,9,1,0.793013977694564,5,0.547,3,0.0407922350730919,1,0.106666666666667,0.472727272727273,0.381021948,41645,s,n
1127,9,0,0,5,0.841,0,0.0832716810092484,1,0.106666666666667,0.472727272727273,0.381021948,41645,s,n
1128,9,1,0.84323408053438,5,0.823,3,0,1,0.106666666666667,0.472727272727273,0.381021948,41645,s,n
1129,9,1,0.81717851917651,5,0.497,3,0.0412730488669641,1,0.106666666666667,0.472727272727273,0.381021948,41645,s,n
1130,9,1,0.715391764001895,5,2.281,3,0.0854409799606419,1,0.106666666666667,0.472727272727273,0.381021948,41645,s,n
1131,9,1,0.928503388045579,5,0.53,3,0,2,0.453333333333333,0.472727272727273,0.469818178,41645,s,y
1132,9,1,0.905725712914377,5,0.533,3,0.0915227302539686,2,0.453333333333333,0.472727272727273,0.469818178,41645,s,y
1133,9,1,0.795317429456,5,0.967,3,0.130509802269145,2,0.453333333333333,0.472727272727273,0.469818178,41645,s,y
1134,9,0,0,5,0.581,0,0.172075848915677,2,0.453333333333333,0.472727272727273,0.469818178,41645,s,y
1135,9,1,0.882849865062075,5,0.641,3,0,2,0.453333333333333,0.472727272727273,0.469818178,41645,s,y
1136,9,1,0.809259389725063,5,0.989,3,0.0400962953853451,2,0.453333333333333,0.472727272727273,0.469818178,41645,s,y
1137,9,0,0,5,0.536,0,0.0855195489603344,2,0.453333333333333,0.472727272727273,0.469818178,41645,s,y
1138,9,1,0.890429363999055,5,0.487,3,0,2,0.453333333333333,0.472727272727273,0.469818178,41645,s,y
1139,9,1,0.754674110266626,5,0.482,3,0.0387401212413161,2,0.453333333333333,0.472727272727273,0.469818178,41645,s,y
1140,9,1,0.756465563171714,5,0.549,3,0.077629332437861,2,0.453333333333333,0.472727272727273,0.469818178,41645,s,y
1141,9,1,0.679634745947281,5,0.43,3,0.117253816545071,2,0.453333333333333,0.472727272727273,0.469818178,41645,s,y
1142,9,1,0.564981621738362,5,0.447,2,0.155901893747259,2,0.453333333333333,0.472727272727273,0.469818178,41645,s,y
1143,9,0,0,5,0.647,0,0.194369275992582,2,0.453333333333333,0.472727272727273,0.469818178,41645,s,y
1144,9,1,0.901787167040915,5,0.731,3,0,2,0.453333333333333,0.472727272727273,0.469818178,41645,s,y
1145,9,1,0.856549981976022,5,0.914,3,0.0402204441494396,2,0.453333333333333,0.472727272727273,0.469818178,41645,s,y
1146,9,1,0.804557697334398,5,0.789,3,0.0843637613707743,2,0.453333333333333,0.472727272727273,0.469818178,41645,s,y
1147,9,1,0.717915479323803,5,0.628,3,0.125166505625393,2,0.453333333333333,0.472727272727273,0.469818178,41645,s,y
1148,9,1,0.678784197552332,5,1.165,3,0.165175754204862,2,0.453333333333333,0.472727272727273,0.469818178,41645,s,y
1149,9,0,0,5,0.567,0,0.208585242715981,2,0.453333333333333,0.472727272727273,0.469818178,41645,s,y
1150,9,1,0.803864026069355,5,7.502,3,0,2,0.453333333333333,0.472727272727273,0.469818178,41645,s,y
1151,9,1,0.702544399213633,5,0.696,3,0.0830118148861014,2,0.453333333333333,0.472727272727273,0.469818178,41645,s,y
1152,9,0,0,5,0.68,0,0.123072547461042,2,0.453333333333333,0.472727272727273,0.469818178,41645,s,y
1153,9,1,0.898691540513947,5,0.649,3,0,2,0.453333333333333,0.472727272727273,0.469818178,41645,s,y
1154,9,1,0.844333494981483,5,0.525,3,0.0395712985537791,2,0.453333333333333,0.472727272727273,0.469818178,41645,s,y
1155,9,1,0.777221352885739,5,0.54,3,0.0785951052305347,2,0.453333333333333,0.472727272727273,0.469818178,41645,s,y
1156,9,1,0.728170654439454,5,0.429,3,0.118093031907183,2,0.453333333333333,0.472727272727273,0.469818178,41645,s,y
1157,9,1,0.689734728459843,5,0.628,3,0.157953655274112,2,0.453333333333333,0.472727272727273,0.469818178,41645,s,y
1158,9,0,0,5,0.598,0,0.198873204858585,2,0.453333333333333,0.472727272727273,0.469818178,41645,s,y
1159,9,1,0.856417998607544,5,0.479,3,0,2,0.453333333333333,0.472727272727273,0.469818178,41645,s,y
1160,9,1,0.777502553428855,5,0.431,3,0.0419249829187865,2,0.453333333333333,0.472727272727273,0.469818178,41645,s,y
1161,9,1,0.726386470093872,5,0.482,3,0.0806739867422033,2,0.453333333333333,0.472727272727273,0.469818178,41645,s,y
1162,9,1,0.728565001397048,5,1.01,3,0.11923998938559,2,0.453333333333333,0.472727272727273,0.469818178,41645,s,y
1163,9,0,0,5,0.646,0,0.161596553356262,2,0.453333333333333,0.472727272727273,0.469818178,41645,s,y
1164,9,1,0.839839320152958,5,0.821,3,0,2,0.453333333333333,0.472727272727273,0.469818178,41645,s,y
